trials.thisRepN,trials.thisTrialN,trials.thisN,trials.thisIndex,num_distr,fixation.started,target.started,mouse.started,mouse.x,mouse.y,mouse.leftButton,mouse.midButton,mouse.rightButton,mouse.time,mouse.clicked_name,participant,session,date,expName,psychopyVersion,frameRate,
0,0,0,0,10,23.87552189998678,23.87552189998678,23.87552189998678,[-0.15648148148148147],[0.36574074074074076],[1],[0],[0],[1.8044956999947317],['target'],1v,001,2023-09-28_16h10.08.025,visualsearch,2023.1.3,59.95937152587215,
1,0,1,0,10,25.743100899999263,25.743100899999263,25.743100899999263,[0.44166666666666665],[0.046296296296296294],[1],[0],[0],[2.215185000008205],['target'],1v,001,2023-09-28_16h10.08.025,visualsearch,2023.1.3,59.95937152587215,
2,0,2,0,10,28.048948600000585,28.048948600000585,28.048948600000585,[-0.10740740740740741],[0.20185185185185187],[1],[0],[0],[1.8714387000072747],['target'],1v,001,2023-09-28_16h10.08.025,visualsearch,2023.1.3,59.95937152587215,
3,0,3,0,10,30.004161099990597,30.004161099990597,30.004161099990597,[0.2111111111111111],[-0.16111111111111112],[1],[0],[0],[2.1262278000067454],['target'],1v,001,2023-09-28_16h10.08.025,visualsearch,2023.1.3,59.95937152587215,
4,0,4,0,5,32.187103799995384,32.187103799995384,32.187103799995384,[-0.2564814814814815],[0.33055555555555555],[1],[0],[0],[1.7874261000106344],['target'],1v,001,2023-09-28_16h10.08.025,visualsearch,2023.1.3,59.95937152587215,
5,0,5,0,10,34.1679063999909,34.1679063999909,34.1679063999909,[0.2972222222222222],[-0.1398148148148148],[1],[0],[0],[1.8209419999911916],['target'],1v,001,2023-09-28_16h10.08.025,visualsearch,2023.1.3,59.95937152587215,
6,0,6,0,10,36.04028579998703,36.04028579998703,36.04028579998703,[0.11296296296296296],[-0.24814814814814815],[1],[0],[0],[1.6161062999890419],['target'],1v,001,2023-09-28_16h10.08.025,visualsearch,2023.1.3,59.95937152587215,
7,0,7,0,5,37.69672889998765,37.69672889998765,37.69672889998765,[-0.45],[-0.4777777777777778],[1],[0],[0],[1.7900224999903003],['target'],1v,001,2023-09-28_16h10.08.025,visualsearch,2023.1.3,59.95937152587215,
8,0,8,0,10,39.56998190000013,39.56998190000013,39.56998190000013,[0.4787037037037037],[-0.1675925925925926],[1],[0],[0],[2.097266500000842],['target'],1v,001,2023-09-28_16h10.08.025,visualsearch,2023.1.3,59.95937152587215,
9,0,9,0,10,41.724525399986305,41.724525399986305,41.724525399986305,[0.43425925925925923],[-0.04537037037037037],[1],[0],[0],[1.083009200010565],['target'],1v,001,2023-09-28_16h10.08.025,visualsearch,2023.1.3,59.95937152587215,
10,0,10,0,10,42.91241429999354,42.91241429999354,42.91241429999354,[0.2657407407407407],[-0.22962962962962963],[1],[0],[0],[2.069838899988099],['target'],1v,001,2023-09-28_16h10.08.025,visualsearch,2023.1.3,59.95937152587215,
11,0,11,0,5,45.035949899989646,45.035949899989646,45.035949899989646,[0.2740740740740741],[0.21203703703703702],[1],[0],[0],[1.2228173999901628],['target'],1v,001,2023-09-28_16h10.08.025,visualsearch,2023.1.3,59.95937152587215,
12,0,12,0,5,46.307159199990565,46.307159199990565,46.307159199990565,[0.1527777777777778],[0.4398148148148148],[1],[0],[0],[2.5025459000025876],['target'],1v,001,2023-09-28_16h10.08.025,visualsearch,2023.1.3,59.95937152587215,
13,0,13,0,10,48.9423492999922,48.9423492999922,48.9423492999922,[0.11481481481481481],[0.2222222222222222],[1],[0],[0],[1.280078499999945],['target'],1v,001,2023-09-28_16h10.08.025,visualsearch,2023.1.3,59.95937152587215,
14,0,14,0,5,50.24317649999284,50.24317649999284,50.24317649999284,[0.2564814814814815],[-0.43148148148148147],[1],[0],[0],[1.5536117000010563],['target'],1v,001,2023-09-28_16h10.08.025,visualsearch,2023.1.3,59.95937152587215,
15,0,15,0,5,51.857758799989824,51.857758799989824,51.857758799989824,[-0.08703703703703704],[0.17592592592592593],[1],[0],[0],[1.2985132000030717],['target'],1v,001,2023-09-28_16h10.08.025,visualsearch,2023.1.3,59.95937152587215,
16,0,16,0,5,53.19108479999704,53.19108479999704,53.19108479999704,[0.29814814814814816],[-0.20555555555555555],[1],[0],[0],[1.5503061000054004],['target'],1v,001,2023-09-28_16h10.08.025,visualsearch,2023.1.3,59.95937152587215,
17,0,17,0,10,54.832828899991,54.832828899991,54.832828899991,[-0.45740740740740743],[-0.1962962962962963],[1],[0],[0],[2.804409400006989],['target'],1v,001,2023-09-28_16h10.08.025,visualsearch,2023.1.3,59.95937152587215,
18,0,18,0,5,57.68239279999398,57.68239279999398,57.68239279999398,[0.2722222222222222],[0.13518518518518519],[1],[0],[0],[2.0859187000023667],['target'],1v,001,2023-09-28_16h10.08.025,visualsearch,2023.1.3,59.95937152587215,
19,0,19,0,5,59.83402149999165,59.83402149999165,59.83402149999165,[-0.4287037037037037],[0.3611111111111111],[1],[0],[0],[1.528366200000164],['target'],1v,001,2023-09-28_16h10.08.025,visualsearch,2023.1.3,59.95937152587215,
20,0,20,0,10,61.44140859998879,61.44140859998879,61.44140859998879,[-0.21203703703703702],[0.2037037037037037],[1],[0],[0],[1.0722090999915963],['target'],1v,001,2023-09-28_16h10.08.025,visualsearch,2023.1.3,59.95937152587215,
21,0,21,0,10,62.60809659998631,62.60809659998631,62.60809659998631,[0.3074074074074074],[0.32685185185185184],[1],[0],[0],[1.3299772000027588],['target'],1v,001,2023-09-28_16h10.08.025,visualsearch,2023.1.3,59.95937152587215,
22,0,22,0,5,63.97288919999846,63.97288919999846,63.97288919999846,[0.2861111111111111],[0.027777777777777776],[1],[0],[0],[1.4625375000032363],['target'],1v,001,2023-09-28_16h10.08.025,visualsearch,2023.1.3,59.95937152587215,
23,0,23,0,10,65.52893239998957,65.52893239998957,65.52893239998957,[-0.44722222222222224],[0.2490740740740741],[1],[0],[0],[1.8359874000016134],['target'],1v,001,2023-09-28_16h10.08.025,visualsearch,2023.1.3,59.95937152587215,
24,0,24,0,10,67.44462979999662,67.44462979999662,67.44462979999662,[0.4777777777777778],[0.09351851851851851],[1],[0],[0],[2.3914718000014545],['target'],1v,001,2023-09-28_16h10.08.025,visualsearch,2023.1.3,59.95937152587215,
25,0,25,0,5,69.88315509998938,69.88315509998938,69.88315509998938,[-0.0787037037037037],[-0.3333333333333333],[1],[0],[0],[1.948737099999562],['target'],1v,001,2023-09-28_16h10.08.025,visualsearch,2023.1.3,59.95937152587215,
26,0,26,0,10,71.9188601999922,71.9188601999922,71.9188601999922,[-0.03981481481481482],[-0.38796296296296295],[1],[0],[0],[1.2545945000019856],['target'],1v,001,2023-09-28_16h10.08.025,visualsearch,2023.1.3,59.95937152587215,
27,0,27,0,5,73.20779519999633,73.20779519999633,73.20779519999633,[0.4009259259259259],[-0.2833333333333333],[1],[0],[0],[1.2132221000065329],['target'],1v,001,2023-09-28_16h10.08.025,visualsearch,2023.1.3,59.95937152587215,
28,0,28,0,10,74.512802799989,74.512802799989,74.512802799989,[0.26944444444444443],[-0.025925925925925925],[1],[0],[0],[1.3841907000023639],['target'],1v,001,2023-09-28_16h10.08.025,visualsearch,2023.1.3,59.95937152587215,
29,0,29,0,5,75.93642289999116,75.93642289999116,75.93642289999116,[-0.49074074074074076],[-0.046296296296296294],[1],[0],[0],[2.0680470000079367],['target'],1v,001,2023-09-28_16h10.08.025,visualsearch,2023.1.3,59.95937152587215,
30,0,30,0,5,78.09647899999982,78.09647899999982,78.09647899999982,[0.3111111111111111],[0.48333333333333334],[1],[0],[0],[4.152071700009401],['target'],1v,001,2023-09-28_16h10.08.025,visualsearch,2023.1.3,59.95937152587215,
31,0,31,0,10,82.35572300000058,82.35572300000058,82.35572300000058,[0.06481481481481481],[0.3851851851851852],[1],[0],[0],[1.6042000000015832],['target'],1v,001,2023-09-28_16h10.08.025,visualsearch,2023.1.3,59.95937152587215,
32,0,32,0,5,84.05223459999252,84.05223459999252,84.05223459999252,[0.40555555555555556],[0.4287037037037037],[1],[0],[0],[1.620187900000019],['target'],1v,001,2023-09-28_16h10.08.025,visualsearch,2023.1.3,59.95937152587215,
33,0,33,0,5,85.70539589998953,85.70539589998953,85.70539589998953,[-0.07592592592592592],[0.28703703703703703],[1],[0],[0],[1.2138222999928985],['target'],1v,001,2023-09-28_16h10.08.025,visualsearch,2023.1.3,59.95937152587215,
34,0,34,0,5,86.97716659998696,86.97716659998696,86.97716659998696,[-0.2564814814814815],[0.4462962962962963],[1],[0],[0],[2.9470422999875154],['target'],1v,001,2023-09-28_16h10.08.025,visualsearch,2023.1.3,59.95937152587215,
35,0,35,0,10,90.03448989999015,90.03448989999015,90.03448989999015,[0.1962962962962963],[-0.4703703703703704],[1],[0],[0],[2.1732903999945847],['target'],1v,001,2023-09-28_16h10.08.025,visualsearch,2023.1.3,59.95937152587215,
36,0,36,0,5,92.25920779998705,92.25920779998705,92.25920779998705,[0.1527777777777778],[0.1175925925925926],[1],[0],[0],[1.3746079999982612],['target'],1v,001,2023-09-28_16h10.08.025,visualsearch,2023.1.3,59.95937152587215,
37,0,37,0,5,93.70040039999003,93.70040039999003,93.70040039999003,[0.009259259259259259],[-0.25],[1],[0],[0],[1.2560609000065597],['target'],1v,001,2023-09-28_16h10.08.025,visualsearch,2023.1.3,59.95937152587215,
38,0,38,0,10,95.03533879999304,95.03533879999304,95.03533879999304,[0.3824074074074074],[-0.3527777777777778],[1],[0],[0],[1.4428978999931132],['target'],1v,001,2023-09-28_16h10.08.025,visualsearch,2023.1.3,59.95937152587215,
39,0,39,0,5,96.55754629999865,96.55754629999865,96.55754629999865,[0.018518518518518517],[0.4666666666666667],[1],[0],[0],[2.0213903000112623],['target'],1v,001,2023-09-28_16h10.08.025,visualsearch,2023.1.3,59.95937152587215,
40,0,40,0,5,98.63249409999116,98.63249409999116,98.63249409999116,[-0.39444444444444443],[-0.26851851851851855],[1],[0],[0],[1.4275724000035552],['target'],1v,001,2023-09-28_16h10.08.025,visualsearch,2023.1.3,59.95937152587215,
41,0,41,0,5,100.11174339998979,100.11174339998979,100.11174339998979,[0.2851851851851852],[-0.35],[1],[0],[0],[1.4296243999997387],['target'],1v,001,2023-09-28_16h10.08.025,visualsearch,2023.1.3,59.95937152587215,
42,0,42,0,10,101.65104249998694,101.65104249998694,101.65104249998694,[-0.2490740740740741],[0.11944444444444445],[1],[0],[0],[1.5408494000002975],['target'],1v,001,2023-09-28_16h10.08.025,visualsearch,2023.1.3,59.95937152587215,
43,0,43,0,5,103.20110069999646,103.20110069999646,103.20110069999646,[-0.325],[0.19537037037037036],[1],[0],[0],[0.9854058000055375],['target'],1v,001,2023-09-28_16h10.08.025,visualsearch,2023.1.3,59.95937152587215,
44,0,44,0,10,104.27650059999723,104.27650059999723,104.27650059999723,[0.20462962962962963],[0.3611111111111111],[1],[0],[0],[1.7084449999965727],['target'],1v,001,2023-09-28_16h10.08.025,visualsearch,2023.1.3,59.95937152587215,
45,0,45,0,10,106.0591543999908,106.0591543999908,106.0591543999908,[0.10277777777777777],[0.3527777777777778],[1],[0],[0],[1.1496412999986205],['target'],1v,001,2023-09-28_16h10.08.025,visualsearch,2023.1.3,59.95937152587215,
46,0,46,0,5,107.26772579998942,107.26772579998942,107.26772579998942,[0.11666666666666667],[0.4675925925925926],[1],[0],[0],[3.4392006999987643],['target'],1v,001,2023-09-28_16h10.08.025,visualsearch,2023.1.3,59.95937152587215,
47,0,47,0,5,110.76100349999615,110.76100349999615,110.76100349999615,[-0.33240740740740743],[0.3685185185185185],[1],[0],[0],[1.534220000001369],['target'],1v,001,2023-09-28_16h10.08.025,visualsearch,2023.1.3,59.95937152587215,
48,0,48,0,5,112.34888919998775,112.34888919998775,112.34888919998775,[-0.46111111111111114],[-0.44074074074074077],[1],[0],[0],[2.659831299999496],['target'],1v,001,2023-09-28_16h10.08.025,visualsearch,2023.1.3,59.95937152587215,
49,0,49,0,5,115.06382599999779,115.06382599999779,115.06382599999779,[0.21203703703703702],[0.05],[1],[0],[0],[1.4609042000083718],[],1v,001,2023-09-28_16h10.08.025,visualsearch,2023.1.3,59.95937152587215,
50,0,50,0,5,116.57051219999266,116.57051219999266,116.57051219999266,[0.5046296296296297],[0.4083333333333333],[1],[0],[0],[1.6661279000109062],['target'],1v,001,2023-09-28_16h10.08.025,visualsearch,2023.1.3,59.95937152587215,
51,0,51,0,5,118.31011019999278,118.31011019999278,118.31011019999278,[0.45740740740740743],[-0.1111111111111111],[1],[0],[0],[1.3448396999883698],['target'],1v,001,2023-09-28_16h10.08.025,visualsearch,2023.1.3,59.95937152587215,
52,0,52,0,5,119.71620979999716,119.71620979999716,119.71620979999716,[-0.3907407407407407],[0.48148148148148145],[1],[0],[0],[2.189146399992751],['target'],1v,001,2023-09-28_16h10.08.025,visualsearch,2023.1.3,59.95937152587215,
53,0,53,0,5,121.947559799999,121.947559799999,121.947559799999,[0.287962962962963],[-0.022222222222222223],[1],[0],[0],[1.410275600006571],['target'],1v,001,2023-09-28_16h10.08.025,visualsearch,2023.1.3,59.95937152587215,
54,0,54,0,10,123.46714909998991,123.46714909998991,123.46714909998991,[-0.34074074074074073],[-0.35185185185185186],[1],[0],[0],[1.7980655999999726],['target'],1v,001,2023-09-28_16h10.08.025,visualsearch,2023.1.3,59.95937152587215,
55,0,55,0,5,125.31444479999482,125.31444479999482,125.31444479999482,[-0.03611111111111111],[-0.4074074074074074],[1],[0],[0],[1.4098180000000866],[],1v,001,2023-09-28_16h10.08.025,visualsearch,2023.1.3,59.95937152587215,
56,0,56,0,5,126.7706302999868,126.7706302999868,126.7706302999868,[0.28703703703703703],[-0.16203703703703703],[1],[0],[0],[1.7386555999983102],['target'],1v,001,2023-09-28_16h10.08.025,visualsearch,2023.1.3,59.95937152587215,
57,0,57,0,5,128.56702369998675,128.56702369998675,128.56702369998675,[0.007407407407407408],[-0.2212962962962963],[1],[0],[0],[1.3347635999962222],['target'],1v,001,2023-09-28_16h10.08.025,visualsearch,2023.1.3,59.95937152587215,
58,0,58,0,10,130.04260309999518,130.04260309999518,130.04260309999518,[0.12777777777777777],[-0.4074074074074074],[1],[0],[0],[1.2631784999975935],['target'],1v,001,2023-09-28_16h10.08.025,visualsearch,2023.1.3,59.95937152587215,
59,0,59,0,5,131.32731229999627,131.32731229999627,131.32731229999627,[-0.32592592592592595],[0.4212962962962963],[1],[0],[0],[2.045632299996214],['target'],1v,001,2023-09-28_16h10.08.025,visualsearch,2023.1.3,59.95937152587215,
60,0,60,0,5,133.43031199999677,133.43031199999677,133.43031199999677,[0.08888888888888889],[0.3675925925925926],[1],[0],[0],[2.0077772999939043],['target'],1v,001,2023-09-28_16h10.08.025,visualsearch,2023.1.3,59.95937152587215,
61,0,61,0,10,135.5309428999899,135.5309428999899,135.5309428999899,[-0.43703703703703706],[-0.3592592592592593],[1],[0],[0],[2.5535649999947054],['target'],1v,001,2023-09-28_16h10.08.025,visualsearch,2023.1.3,59.95937152587215,
62,0,62,0,5,138.12162429999444,138.12162429999444,138.12162429999444,[-0.387037037037037],[0.4740740740740741],[1],[0],[0],[2.8912418999971123],['target'],1v,001,2023-09-28_16h10.08.025,visualsearch,2023.1.3,59.95937152587215,
63,0,63,0,10,141.10811089999333,141.10811089999333,141.10811089999333,[-0.27037037037037037],[-0.2638888888888889],[1],[0],[0],[2.7360575999919092],['target'],1v,001,2023-09-28_16h10.08.025,visualsearch,2023.1.3,59.95937152587215,
64,0,64,0,10,143.9678414999944,143.9678414999944,143.9678414999944,[0.30925925925925923],[0.42314814814814816],[1],[0],[0],[2.629114800001844],['target'],1v,001,2023-09-28_16h10.08.025,visualsearch,2023.1.3,59.95937152587215,
65,0,65,0,10,146.6907177999965,146.6907177999965,146.6907177999965,[0.2861111111111111],[-0.36574074074074076],[1],[0],[0],[2.516185900007258],['target'],1v,001,2023-09-28_16h10.08.025,visualsearch,2023.1.3,59.95937152587215,
66,0,66,0,10,149.33962449998944,149.33962449998944,149.33962449998944,[-0.07407407407407407],[0.03333333333333333],[1],[0],[0],[2.5336377000057837],['target'],1v,001,2023-09-28_16h10.08.025,visualsearch,2023.1.3,59.95937152587215,
67,0,67,0,10,151.9577930999949,151.9577930999949,151.9577930999949,[-0.14629629629629629],[0.4537037037037037],[1],[0],[0],[4.055726199992932],['target'],1v,001,2023-09-28_16h10.08.025,visualsearch,2023.1.3,59.95937152587215,
68,0,68,0,5,156.07719029999862,156.07719029999862,156.07719029999862,[-0.028703703703703703],[0.325],[1],[0],[0],[1.225742499998887],['target'],1v,001,2023-09-28_16h10.08.025,visualsearch,2023.1.3,59.95937152587215,
69,0,69,0,5,157.3715874999907,157.3715874999907,157.3715874999907,[-0.19907407407407407],[0.1935185185185185],[1],[0],[0],[1.1892693000118015],['target'],1v,001,2023-09-28_16h10.08.025,visualsearch,2023.1.3,59.95937152587215,
70,0,70,0,10,158.63544509999338,158.63544509999338,158.63544509999338,[0.3175925925925926],[0.26296296296296295],[1],[0],[0],[1.5030601000034949],['target'],1v,001,2023-09-28_16h10.08.025,visualsearch,2023.1.3,59.95937152587215,
71,0,71,0,5,160.1918822000007,160.1918822000007,160.1918822000007,[0.31296296296296294],[0.04537037037037037],[1],[0],[0],[1.1840026000136277],['target'],1v,001,2023-09-28_16h10.08.025,visualsearch,2023.1.3,59.95937152587215,
72,0,72,0,10,161.45710469999176,161.45710469999176,161.45710469999176,[-0.12777777777777777],[0.3490740740740741],[1],[0],[0],[1.197941999998875],['target'],1v,001,2023-09-28_16h10.08.025,visualsearch,2023.1.3,59.95937152587215,
73,0,73,0,5,162.72119969999767,162.72119969999767,162.72119969999767,[0.16111111111111112],[-0.14351851851851852],[1],[0],[0],[1.3237860999943223],[],1v,001,2023-09-28_16h10.08.025,visualsearch,2023.1.3,59.95937152587215,
74,0,74,0,5,164.08741299998655,164.08741299998655,164.08741299998655,[0.42592592592592593],[-0.17314814814814813],[1],[0],[0],[1.2803213000006508],['target'],1v,001,2023-09-28_16h10.08.025,visualsearch,2023.1.3,59.95937152587215,
75,0,75,0,10,165.43310519999068,165.43310519999068,165.43310519999068,[0.15],[0.11851851851851852],[1],[0],[0],[1.1935347000107868],['target'],1v,001,2023-09-28_16h10.08.025,visualsearch,2023.1.3,59.95937152587215,
76,0,76,0,5,166.660692999998,166.660692999998,166.660692999998,[-0.17592592592592593],[-0.27037037037037037],[1],[0],[0],[1.4891695999976946],['target'],1v,001,2023-09-28_16h10.08.025,visualsearch,2023.1.3,59.95937152587215,
77,0,77,0,10,168.2556586999999,168.2556586999999,168.2556586999999,[-0.5194444444444445],[-0.2111111111111111],[1],[0],[0],[1.9974376000027405],['target'],1v,001,2023-09-28_16h10.08.025,visualsearch,2023.1.3,59.95937152587215,
78,0,78,0,10,170.35283249999338,170.35283249999338,170.35283249999338,[-0.43703703703703706],[0.31574074074074077],[1],[0],[0],[2.0272702000074787],['target'],1v,001,2023-09-28_16h10.08.025,visualsearch,2023.1.3,59.95937152587215,
79,0,79,0,10,172.438399199993,172.438399199993,172.438399199993,[0.1935185185185185],[0.3990740740740741],[1],[0],[0],[1.7271029999974417],['target'],1v,001,2023-09-28_16h10.08.025,visualsearch,2023.1.3,59.95937152587215,
80,0,80,0,10,174.24097689999326,174.24097689999326,174.24097689999326,[-0.1824074074074074],[0.46111111111111114],[1],[0],[0],[3.252576200000476],['target'],1v,001,2023-09-28_16h10.08.025,visualsearch,2023.1.3,59.95937152587215,
81,0,81,0,10,177.57805859998916,177.57805859998916,177.57805859998916,[-0.06759259259259259],[0.44074074074074077],[1],[0],[0],[1.7715799999859883],['target'],1v,001,2023-09-28_16h10.08.025,visualsearch,2023.1.3,59.95937152587215,
82,0,82,0,5,179.37128789999406,179.37128789999406,179.37128789999406,[-0.1],[-0.03148148148148148],[1],[0],[0],[1.4667663000000175],[],1v,001,2023-09-28_16h10.08.025,visualsearch,2023.1.3,59.95937152587215,
83,0,83,0,10,180.90877939999336,180.90877939999336,180.90877939999336,[0.06851851851851852],[-0.2175925925925926],[1],[0],[0],[1.9688514000008581],['target'],1v,001,2023-09-28_16h10.08.025,visualsearch,2023.1.3,59.95937152587215,
84,0,84,0,5,182.91396809999424,182.91396809999424,182.91396809999424,[0.15092592592592594],[-0.004629629629629629],[1],[0],[0],[1.195995000001858],['target'],1v,001,2023-09-28_16h10.08.025,visualsearch,2023.1.3,59.95937152587215,
85,0,85,0,10,184.20028619999357,184.20028619999357,184.20028619999357,[0.3055555555555556],[0.4648148148148148],[1],[0],[0],[2.5968247999990126],[],1v,001,2023-09-28_16h10.08.025,visualsearch,2023.1.3,59.95937152587215,
86,0,86,0,10,186.89921759998833,186.89921759998833,186.89921759998833,[0.03611111111111111],[0.47314814814814815],[1],[0],[0],[4.3028313999966485],['target'],1v,001,2023-09-28_16h10.08.025,visualsearch,2023.1.3,59.95937152587215,
87,0,87,0,10,191.27611959999194,191.27611959999194,191.27611959999194,[0.2351851851851852],[-0.044444444444444446],[1],[0],[0],[2.4368630000099074],['target'],1v,001,2023-09-28_16h10.08.025,visualsearch,2023.1.3,59.95937152587215,
88,0,88,0,10,193.8218036999897,193.8218036999897,193.8218036999897,[-0.07037037037037037],[-0.1425925925925926],[1],[0],[0],[1.9550691999902483],['target'],1v,001,2023-09-28_16h10.08.025,visualsearch,2023.1.3,59.95937152587215,
89,0,89,0,10,195.83266349999758,195.83266349999758,195.83266349999758,[0.4027777777777778],[0.16296296296296298],[1],[0],[0],[1.5536037999991095],['target'],1v,001,2023-09-28_16h10.08.025,visualsearch,2023.1.3,59.95937152587215,
90,0,90,0,10,197.47650219999196,197.47650219999196,197.47650219999196,[-0.45925925925925926],[-0.35648148148148145],[1],[0],[0],[3.105035600005067],['target'],1v,001,2023-09-28_16h10.08.025,visualsearch,2023.1.3,59.95937152587215,
91,0,91,0,5,200.61117150000064,200.61117150000064,200.61117150000064,[0.24814814814814815],[0.26481481481481484],[1],[0],[0],[2.2973227000038605],['target'],1v,001,2023-09-28_16h10.08.025,visualsearch,2023.1.3,59.95937152587215,
92,0,92,0,5,203.0040425999905,203.0040425999905,203.0040425999905,[-0.4444444444444444],[-0.24814814814814815],[1],[0],[0],[1.885603099988657],['target'],1v,001,2023-09-28_16h10.08.025,visualsearch,2023.1.3,59.95937152587215,
93,0,93,0,5,204.9345270999911,204.9345270999911,204.9345270999911,[0.08611111111111111],[0.09444444444444444],[1],[0],[0],[1.2231506999960402],[],1v,001,2023-09-28_16h10.08.025,visualsearch,2023.1.3,59.95937152587215,
94,0,94,0,10,206.26776189998782,206.26776189998782,206.26776189998782,[-0.4351851851851852],[0.3101851851851852],[1],[0],[0],[1.4002992000023369],['target'],1v,001,2023-09-28_16h10.08.025,visualsearch,2023.1.3,59.95937152587215,
95,0,95,0,10,207.75792479999654,207.75792479999654,207.75792479999654,[0.475],[-0.27685185185185185],[1],[0],[0],[2.7018482999992557],['target'],1v,001,2023-09-28_16h10.08.025,visualsearch,2023.1.3,59.95937152587215,
96,0,96,0,10,210.53545279998798,210.53545279998798,210.53545279998798,[0.4527777777777778],[0.44907407407407407],[1],[0],[0],[2.443208599986974],['target'],1v,001,2023-09-28_16h10.08.025,visualsearch,2023.1.3,59.95937152587215,
97,0,97,0,5,213.01267059998645,213.01267059998645,213.01267059998645,[-0.48333333333333334],[0.14074074074074075],[1],[0],[0],[1.8715295000001788],['target'],1v,001,2023-09-28_16h10.08.025,visualsearch,2023.1.3,59.95937152587215,
98,0,98,0,10,214.97392939998826,214.97392939998826,214.97392939998826,[-0.38055555555555554],[0.22962962962962963],[1],[0],[0],[1.3512846999947214],['target'],1v,001,2023-09-28_16h10.08.025,visualsearch,2023.1.3,59.95937152587215,
99,0,99,0,5,216.39992250000068,216.39992250000068,216.39992250000068,[0.02962962962962963],[-0.29074074074074074],[1],[0],[0],[1.8056585000013001],['target'],1v,001,2023-09-28_16h10.08.025,visualsearch,2023.1.3,59.95937152587215,
100,0,100,0,5,218.24330519999785,218.24330519999785,218.24330519999785,[-0.35648148148148145],[-0.2490740740740741],[1],[0],[0],[1.9107765999942785],['target'],1v,001,2023-09-28_16h10.08.025,visualsearch,2023.1.3,59.95937152587215,
101,0,101,0,5,220.20240999999805,220.20240999999805,220.20240999999805,[-0.008333333333333333],[-0.05277777777777778],[1],[0],[0],[2.213844500001869],['target'],1v,001,2023-09-28_16h10.08.025,visualsearch,2023.1.3,59.95937152587215,
102,0,102,0,10,222.51419239999086,222.51419239999086,222.51419239999086,[-0.4462962962962963],[-0.09814814814814815],[1],[0],[0],[1.45871829999669],[],1v,001,2023-09-28_16h10.08.025,visualsearch,2023.1.3,59.95937152587215,
103,0,103,0,10,224.12105499999598,224.12105499999598,224.12105499999598,[0.11481481481481481],[0.38981481481481484],[1],[0],[0],[1.5906420000101207],['target'],1v,001,2023-09-28_16h10.08.025,visualsearch,2023.1.3,59.95937152587215,
104,0,104,0,5,225.75136109998857,225.75136109998857,225.75136109998857,[0.25092592592592594],[-0.22314814814814815],[1],[0],[0],[1.3175443000072846],['target'],1v,001,2023-09-28_16h10.08.025,visualsearch,2023.1.3,59.95937152587215,
105,0,105,0,10,227.13839999999618,227.13839999999618,227.13839999999618,[-0.44166666666666665],[0.046296296296296294],[1],[0],[0],[2.2329014999995707],['target'],1v,001,2023-09-28_16h10.08.025,visualsearch,2023.1.3,59.95937152587215,
106,0,106,0,10,229.51211359999434,229.51211359999434,229.51211359999434,[-0.1259259259259259],[-0.4222222222222222],[1],[0],[0],[2.5722994999960065],['target'],1v,001,2023-09-28_16h10.08.025,visualsearch,2023.1.3,59.95937152587215,
107,0,107,0,5,232.10679349998827,232.10679349998827,232.10679349998827,[-0.20462962962962963],[0.24444444444444444],[1],[0],[0],[2.1618625999981305],['target'],1v,001,2023-09-28_16h10.08.025,visualsearch,2023.1.3,59.95937152587215,
108,0,108,0,10,234.37512899999274,234.37512899999274,234.37512899999274,[-0.43796296296296294],[0.34629629629629627],[1],[0],[0],[2.1852674999972805],['target'],1v,001,2023-09-28_16h10.08.025,visualsearch,2023.1.3,59.95937152587215,
109,0,109,0,5,236.60416029999033,236.60416029999033,236.60416029999033,[-0.21296296296296297],[0.26851851851851855],[1],[0],[0],[1.5919499000010546],['target'],1v,001,2023-09-28_16h10.08.025,visualsearch,2023.1.3,59.95937152587215,
110,0,110,0,5,238.25330389999726,238.25330389999726,238.25330389999726,[-0.35833333333333334],[-0.43703703703703706],[1],[0],[0],[2.0289269000058994],['target'],1v,001,2023-09-28_16h10.08.025,visualsearch,2023.1.3,59.95937152587215,
111,0,111,0,10,240.3715235999989,240.3715235999989,240.3715235999989,[0.1361111111111111],[-0.15555555555555556],[1],[0],[0],[1.4711286000092514],['target'],1v,001,2023-09-28_16h10.08.025,visualsearch,2023.1.3,59.95937152587215,
112,0,112,0,10,241.9283652999875,241.9283652999875,241.9283652999875,[0.32685185185185184],[0.40925925925925927],[1],[0],[0],[2.9379421999910846],['target'],1v,001,2023-09-28_16h10.08.025,visualsearch,2023.1.3,59.95937152587215,
113,0,113,0,5,244.90336399999796,244.90336399999796,244.90336399999796,[0.19444444444444445],[-0.1638888888888889],[1],[0],[0],[1.6545737999986159],[],1v,001,2023-09-28_16h10.08.025,visualsearch,2023.1.3,59.95937152587215,
114,0,114,0,5,246.62024340000062,246.62024340000062,246.62024340000062,[-0.45092592592592595],[-0.24537037037037038],[1],[0],[0],[1.6846380999922985],['target'],1v,001,2023-09-28_16h10.08.025,visualsearch,2023.1.3,59.95937152587215,
115,0,115,0,5,248.34607809998852,248.34607809998852,248.34607809998852,[0.002777777777777778],[-0.1935185185185185],[1],[0],[0],[1.3569275999907404],['target'],1v,001,2023-09-28_16h10.08.025,visualsearch,2023.1.3,59.95937152587215,
116,0,116,0,10,249.77849539999443,249.77849539999443,249.77849539999443,[-0.06944444444444445],[-0.23055555555555557],[1],[0],[0],[1.4200304999976652],[],1v,001,2023-09-28_16h10.08.025,visualsearch,2023.1.3,59.95937152587215,
117,0,117,0,5,251.26085690000036,251.26085690000036,251.26085690000036,[-0.47129629629629627],[0.24444444444444444],[1],[0],[0],[1.406223099998897],['target'],1v,001,2023-09-28_16h10.08.025,visualsearch,2023.1.3,59.95937152587215,
118,0,118,0,10,252.74259539999184,252.74259539999184,252.74259539999184,[-0.262037037037037],[0.45555555555555555],[1],[0],[0],[3.72160889999941],['target'],1v,001,2023-09-28_16h10.08.025,visualsearch,2023.1.3,59.95937152587215,
119,0,119,0,10,256.51711429998977,256.51711429998977,256.51711429998977,[0.39814814814814814],[0.13240740740740742],[1],[0],[0],[2.0353082999936305],['target'],1v,001,2023-09-28_16h10.08.025,visualsearch,2023.1.3,59.95937152587215,
120,0,120,0,10,258.7127824999916,258.7127824999916,258.7127824999916,[0.18611111111111112],[0.3574074074074074],[1],[0],[0],[2.7716259000007994],['target'],1v,001,2023-09-28_16h10.08.025,visualsearch,2023.1.3,59.95937152587215,
121,0,121,0,5,261.49054759999854,261.49054759999854,261.49054759999854,[-0.44814814814814813],[0.4101851851851852],[1],[0],[0],[1.451063200001954],['target'],1v,001,2023-09-28_16h10.08.025,visualsearch,2023.1.3,59.95937152587215,
122,0,122,0,5,263.0036046999885,263.0036046999885,263.0036046999885,[-0.17222222222222222],[0.04814814814814815],[1],[0],[0],[1.227173799998127],['target'],1v,001,2023-09-28_16h10.08.025,visualsearch,2023.1.3,59.95937152587215,
123,0,123,0,10,264.30540219999966,264.30540219999966,264.30540219999966,[-0.33055555555555555],[0.07222222222222222],[1],[0],[0],[1.4923522999888519],['target'],1v,001,2023-09-28_16h10.08.025,visualsearch,2023.1.3,59.95937152587215,
124,0,124,0,5,265.8483280999935,265.8483280999935,265.8483280999935,[0.425],[-0.19722222222222222],[1],[0],[0],[2.196854900001199],['target'],1v,001,2023-09-28_16h10.08.025,visualsearch,2023.1.3,59.95937152587215,
125,0,125,0,10,268.1557790999941,268.1557790999941,268.1557790999941,[-0.07685185185185185],[0.3861111111111111],[1],[0],[0],[3.5402071999997133],['target'],1v,001,2023-09-28_16h10.08.025,visualsearch,2023.1.3,59.95937152587215,
126,0,126,0,10,271.77943119998963,271.77943119998963,271.77943119998963,[0.0712962962962963],[0.002777777777777778],[1],[0],[0],[1.3285353000101168],['target'],1v,001,2023-09-28_16h10.08.025,visualsearch,2023.1.3,59.95937152587215,
127,0,127,0,5,273.1553813999926,273.1553813999926,273.1553813999926,[-0.4537037037037037],[0.45092592592592595],[1],[0],[0],[1.8724283000046853],['target'],1v,001,2023-09-28_16h10.08.025,visualsearch,2023.1.3,59.95937152587215,
128,0,128,0,10,275.1106945999927,275.1106945999927,275.1106945999927,[-0.14074074074074075],[0.4361111111111111],[1],[0],[0],[2.028735500003677],['target'],1v,001,2023-09-28_16h10.08.025,visualsearch,2023.1.3,59.95937152587215,
129,0,129,0,10,277.2336513999908,277.2336513999908,277.2336513999908,[-0.47962962962962963],[0.39351851851851855],[1],[0],[0],[1.7727613000024576],['target'],1v,001,2023-09-28_16h10.08.025,visualsearch,2023.1.3,59.95937152587215,
130,0,130,0,10,279.15149179998843,279.15149179998843,279.15149179998843,[-0.25462962962962965],[-0.05092592592592592],[1],[0],[0],[1.9523078000056557],['target'],1v,001,2023-09-28_16h10.08.025,visualsearch,2023.1.3,59.95937152587215,
131,0,131,0,5,281.13146889999916,281.13146889999916,281.13146889999916,[0.18333333333333332],[-0.21574074074074073],[1],[0],[0],[1.8049546999973245],['target'],1v,001,2023-09-28_16h10.08.025,visualsearch,2023.1.3,59.95937152587215,
132,0,132,0,5,283.02687199998763,283.02687199998763,283.02687199998763,[0.17314814814814813],[-0.16111111111111112],[1],[0],[0],[1.1003326999925775],['target'],1v,001,2023-09-28_16h10.08.025,visualsearch,2023.1.3,59.95937152587215,
133,0,133,0,10,284.28266299999086,284.28266299999086,284.28266299999086,[0.23425925925925925],[-0.12777777777777777],[1],[0],[0],[1.8344616999966092],['target'],1v,001,2023-09-28_16h10.08.025,visualsearch,2023.1.3,59.95937152587215,
134,0,134,0,5,286.14605019999726,286.14605019999726,286.14605019999726,[-0.002777777777777778],[-0.020370370370370372],[1],[0],[0],[1.7457482000027085],['target'],1v,001,2023-09-28_16h10.08.025,visualsearch,2023.1.3,59.95937152587215,
135,0,135,0,10,288.03709829998843,288.03709829998843,288.03709829998843,[-0.037037037037037035],[-0.1287037037037037],[1],[0],[0],[1.4424043000035454],['target'],1v,001,2023-09-28_16h10.08.025,visualsearch,2023.1.3,59.95937152587215,
136,0,136,0,5,289.50420869998925,289.50420869998925,289.50420869998925,[0.001851851851851852],[-0.13240740740740742],[1],[0],[0],[0.9557363999920199],['target'],1v,001,2023-09-28_16h10.08.025,visualsearch,2023.1.3,59.95937152587215,
137,0,137,0,10,290.54236979999405,290.54236979999405,290.54236979999405,[0.21481481481481482],[0.017592592592592594],[1],[0],[0],[1.3776990000042133],['target'],1v,001,2023-09-28_16h10.08.025,visualsearch,2023.1.3,59.95937152587215,
138,0,138,0,10,291.9986046999984,291.9986046999984,291.9986046999984,[-0.23148148148148148],[-0.22685185185185186],[1],[0],[0],[1.6061616000079084],['target'],1v,001,2023-09-28_16h10.08.025,visualsearch,2023.1.3,59.95937152587215,
139,0,139,0,10,293.75559789998806,293.75559789998806,293.75559789998806,[0.07777777777777778],[0.36018518518518516],[1],[0],[0],[1.601304000010714],['target'],1v,001,2023-09-28_16h10.08.025,visualsearch,2023.1.3,59.95937152587215,
140,0,140,0,5,295.3824065999943,295.3824065999943,295.3824065999943,[-0.1361111111111111],[-0.07777777777777778],[1],[0],[0],[1.9291818000056082],['target'],1v,001,2023-09-28_16h10.08.025,visualsearch,2023.1.3,59.95937152587215,
141,0,141,0,5,297.3632585999876,297.3632585999876,297.3632585999876,[-0.1361111111111111],[-0.07777777777777778],[1],[0],[0],[0.6336770000052638],['target'],1v,001,2023-09-28_16h10.08.025,visualsearch,2023.1.3,59.95937152587215,
142,0,142,0,5,298.04170539999905,298.04170539999905,298.04170539999905,[0.3611111111111111],[-0.33796296296296297],[1],[0],[0],[2.3846014000009745],['target'],1v,001,2023-09-28_16h10.08.025,visualsearch,2023.1.3,59.95937152587215,
143,0,143,0,10,300.5142510000005,300.5142510000005,300.5142510000005,[0.15925925925925927],[-0.1537037037037037],[1],[0],[0],[1.064109400002053],['target'],1v,001,2023-09-28_16h10.08.025,visualsearch,2023.1.3,59.95937152587215,
144,0,144,0,5,301.6303775999986,301.6303775999986,301.6303775999986,[-0.20277777777777778],[0.007407407407407408],[1],[0],[0],[1.4389871999883326],['target'],1v,001,2023-09-28_16h10.08.025,visualsearch,2023.1.3,59.95937152587215,
145,0,145,0,5,303.14787629999046,303.14787629999046,303.14787629999046,[-0.13240740740740742],[0.1537037037037037],[1],[0],[0],[1.2918269999936456],['target'],1v,001,2023-09-28_16h10.08.025,visualsearch,2023.1.3,59.95937152587215,
146,0,146,0,10,304.5425569999934,304.5425569999934,304.5425569999934,[-0.35833333333333334],[0.15833333333333333],[1],[0],[0],[2.717885199992452],['target'],1v,001,2023-09-28_16h10.08.025,visualsearch,2023.1.3,59.95937152587215,
147,0,147,0,5,307.3053705999919,307.3053705999919,307.3053705999919,[-0.36203703703703705],[0.07777777777777778],[1],[0],[0],[1.1981987000035588],['target'],1v,001,2023-09-28_16h10.08.025,visualsearch,2023.1.3,59.95937152587215,
148,0,148,0,5,308.56785609999497,308.56785609999497,308.56785609999497,[0.12685185185185185],[0.13148148148148148],[1],[0],[0],[1.9369969999970635],['target'],1v,001,2023-09-28_16h10.08.025,visualsearch,2023.1.3,59.95937152587215,
149,0,149,0,5,310.54914199998893,310.54914199998893,310.54914199998893,[0.36203703703703705],[-0.45092592592592595],[1],[0],[0],[3.9773993999988306],[],1v,001,2023-09-28_16h10.08.025,visualsearch,2023.1.3,59.95937152587215,
150,0,150,0,5,314.6241547999962,314.6241547999962,314.6241547999962,[0.2953703703703704],[0.36666666666666664],[1],[0],[0],[2.6018561999953818],['target'],1v,001,2023-09-28_16h10.08.025,visualsearch,2023.1.3,59.95937152587215,
151,0,151,0,10,317.29933479998726,317.29933479998726,317.29933479998726,[-0.025],[0.2351851851851852],[1],[0],[0],[1.5853053000028012],['target'],1v,001,2023-09-28_16h10.08.025,visualsearch,2023.1.3,59.95937152587215,
152,0,152,0,5,318.96606699998665,318.96606699998665,318.96606699998665,[0.37777777777777777],[-0.000925925925925926],[1],[0],[0],[1.4695155000081286],['target'],1v,001,2023-09-28_16h10.08.025,visualsearch,2023.1.3,59.95937152587215,
153,0,153,0,5,320.5077678999951,320.5077678999951,320.5077678999951,[0.3962962962962963],[0.3962962962962963],[1],[0],[0],[1.6963045000011334],['target'],1v,001,2023-09-28_16h10.08.025,visualsearch,2023.1.3,59.95937152587215,
154,0,154,0,10,322.29278439999325,322.29278439999325,322.29278439999325,[-0.1824074074074074],[0.4388888888888889],[1],[0],[0],[1.766407100003562],['target'],1v,001,2023-09-28_16h10.08.025,visualsearch,2023.1.3,59.95937152587215,
155,0,155,0,10,324.1556481000007,324.1556481000007,324.1556481000007,[0.28888888888888886],[0.2490740740740741],[1],[0],[0],[1.79973680000694],['target'],1v,001,2023-09-28_16h10.08.025,visualsearch,2023.1.3,59.95937152587215,
156,0,156,0,5,325.97737459999917,325.97737459999917,325.97737459999917,[-0.013888888888888888],[0.287962962962963],[1],[0],[0],[1.4148085000051651],['target'],1v,001,2023-09-28_16h10.08.025,visualsearch,2023.1.3,59.95937152587215,
157,0,157,0,10,327.48716809999314,327.48716809999314,327.48716809999314,[0.001851851851851852],[-0.3453703703703704],[1],[0],[0],[2.9161311000061687],['target'],1v,001,2023-09-28_16h10.08.025,visualsearch,2023.1.3,59.95937152587215,
158,0,158,0,5,330.44703549999394,330.44703549999394,330.44703549999394,[-0.08796296296296297],[-0.2212962962962963],[1],[0],[0],[1.24182429999928],['target'],1v,001,2023-09-28_16h10.08.025,visualsearch,2023.1.3,59.95937152587215,
159,0,159,0,5,331.75309939999715,331.75309939999715,331.75309939999715,[0.3175925925925926],[0.41759259259259257],[1],[0],[0],[1.929091799989692],['target'],1v,001,2023-09-28_16h10.08.025,visualsearch,2023.1.3,59.95937152587215,
160,0,160,0,5,333.76750639999227,333.76750639999227,333.76750639999227,[0.10648148148148148],[-0.07685185185185185],[1],[0],[0],[1.4150745999941137],['target'],1v,001,2023-09-28_16h10.08.025,visualsearch,2023.1.3,59.95937152587215,
161,0,161,0,10,335.25567499999306,335.25567499999306,335.25567499999306,[-0.018518518518518517],[0.14444444444444443],[1],[0],[0],[1.5269994999980554],['target'],1v,001,2023-09-28_16h10.08.025,visualsearch,2023.1.3,59.95937152587215,
162,0,162,0,10,336.8577050999884,336.8577050999884,336.8577050999884,[-0.03796296296296296],[-0.3537037037037037],[1],[0],[0],[2.4204213000048185],[],1v,001,2023-09-28_16h10.08.025,visualsearch,2023.1.3,59.95937152587215,
163,0,163,0,10,339.34249049999926,339.34249049999926,339.34249049999926,[-0.38796296296296295],[0.12407407407407407],[1],[0],[0],[1.8430100999976275],['target'],1v,001,2023-09-28_16h10.08.025,visualsearch,2023.1.3,59.95937152587215,
164,0,164,0,10,341.26815720000013,341.26815720000013,341.26815720000013,[-0.37037037037037035],[-0.2953703703703704],[1],[0],[0],[1.9604630999965593],['target'],1v,001,2023-09-28_16h10.08.025,visualsearch,2023.1.3,59.95937152587215,
165,0,165,0,10,343.27687519999745,343.27687519999745,343.27687519999745,[0.12962962962962962],[-0.1175925925925926],[1],[0],[0],[1.4620178999903146],['target'],1v,001,2023-09-28_16h10.08.025,visualsearch,2023.1.3,59.95937152587215,
166,0,166,0,10,344.8018338999973,344.8018338999973,344.8018338999973,[-0.42685185185185187],[0.2564814814814815],[1],[0],[0],[2.066184700001031],['target'],1v,001,2023-09-28_16h10.08.025,visualsearch,2023.1.3,59.95937152587215,
167,0,167,0,10,346.93977329999325,346.93977329999325,346.93977329999325,[0.075],[0.10185185185185185],[1],[0],[0],[1.3159325000015087],['target'],1v,001,2023-09-28_16h10.08.025,visualsearch,2023.1.3,59.95937152587215,
168,0,168,0,5,348.32404159998987,348.32404159998987,348.32404159998987,[-0.46111111111111114],[0.4601851851851852],[1],[0],[0],[2.610266200004844],['target'],1v,001,2023-09-28_16h10.08.025,visualsearch,2023.1.3,59.95937152587215,
169,0,169,0,10,350.9988485999929,350.9988485999929,350.9988485999929,[0.1712962962962963],[0.001851851851851852],[1],[0],[0],[2.4874240000062855],['target'],1v,001,2023-09-28_16h10.08.025,visualsearch,2023.1.3,59.95937152587215,
170,0,170,0,10,353.6044630999968,353.6044630999968,353.6044630999968,[0.225],[0.022222222222222223],[1],[0],[0],[1.1395074000029126],['target'],1v,001,2023-09-28_16h10.08.025,visualsearch,2023.1.3,59.95937152587215,
171,0,171,0,10,354.84332429998904,354.84332429998904,354.84332429998904,[0.4361111111111111],[0.1],[1],[0],[0],[1.4072637999925064],['target'],1v,001,2023-09-28_16h10.08.025,visualsearch,2023.1.3,59.95937152587215,
172,0,172,0,5,356.2794367999886,356.2794367999886,356.2794367999886,[0.47685185185185186],[-0.20833333333333334],[1],[0],[0],[1.359094700004789],['target'],1v,001,2023-09-28_16h10.08.025,visualsearch,2023.1.3,59.95937152587215,
173,0,173,0,10,357.73839129999396,357.73839129999396,357.73839129999396,[-0.5037037037037037],[0.07037037037037037],[1],[0],[0],[1.9022420000110287],['target'],1v,001,2023-09-28_16h10.08.025,visualsearch,2023.1.3,59.95937152587215,
174,0,174,0,5,359.6798837999959,359.6798837999959,359.6798837999959,[0.43148148148148147],[0.325],[1],[0],[0],[1.6945160000032047],['target'],1v,001,2023-09-28_16h10.08.025,visualsearch,2023.1.3,59.95937152587215,
175,0,175,0,5,361.4320885999914,361.4320885999914,361.4320885999914,[-0.29907407407407405],[0.06666666666666667],[1],[0],[0],[1.5735809999896446],['target'],1v,001,2023-09-28_16h10.08.025,visualsearch,2023.1.3,59.95937152587215,
176,0,176,0,10,363.10833499999717,363.10833499999717,363.10833499999717,[0.13148148148148148],[-0.44814814814814813],[1],[0],[0],[2.6142223999922862],['target'],1v,001,2023-09-28_16h10.08.025,visualsearch,2023.1.3,59.95937152587215,
177,0,177,0,10,365.7822370999929,365.7822370999929,365.7822370999929,[-0.11388888888888889],[-0.05277777777777778],[1],[0],[0],[1.5296021000103792],['target'],1v,001,2023-09-28_16h10.08.025,visualsearch,2023.1.3,59.95937152587215,
178,0,178,0,5,367.35605639999267,367.35605639999267,367.35605639999267,[-0.15925925925925927],[0.36666666666666664],[1],[0],[0],[1.6500381999940146],['target'],1v,001,2023-09-28_16h10.08.025,visualsearch,2023.1.3,59.95937152587215,
179,0,179,0,10,369.10676469998725,369.10676469998725,369.10676469998725,[-0.29907407407407405],[-0.4212962962962963],[1],[0],[0],[1.9096792000054847],['target'],1v,001,2023-09-28_16h10.08.025,visualsearch,2023.1.3,59.95937152587215,
180,0,180,0,5,371.0811923999863,371.0811923999863,371.0811923999863,[-0.44722222222222224],[0.4824074074074074],[1],[0],[0],[3.6151870000030613],['target'],1v,001,2023-09-28_16h10.08.025,visualsearch,2023.1.3,59.95937152587215,
181,0,181,0,10,374.8135404999921,374.8135404999921,374.8135404999921,[-0.023148148148148147],[-0.021296296296296296],[1],[0],[0],[1.7841645000007702],['target'],1v,001,2023-09-28_16h10.08.025,visualsearch,2023.1.3,59.95937152587215,
182,0,182,0,10,376.74218689999543,376.74218689999543,376.74218689999543,[0.23333333333333334],[-0.24259259259259258],[1],[0],[0],[1.6702217999991262],[],1v,001,2023-09-28_16h10.08.025,visualsearch,2023.1.3,59.95937152587215,
183,0,183,0,10,378.52205649999087,378.52205649999087,378.52205649999087,[-0.11481481481481481],[-0.33611111111111114],[1],[0],[0],[4.795480900007533],['target'],1v,001,2023-09-28_16h10.08.025,visualsearch,2023.1.3,59.95937152587215,
184,0,184,0,5,383.35656209998706,383.35656209998706,383.35656209998706,[0.20555555555555555],[0.028703703703703703],[1],[0],[0],[1.3980875999986893],['target'],1v,001,2023-09-28_16h10.08.025,visualsearch,2023.1.3,59.95937152587215,
185,0,185,0,5,384.80547300000035,384.80547300000035,384.80547300000035,[-0.017592592592592594],[0.03425925925925926],[1],[0],[0],[1.5622881000017514],['target'],1v,001,2023-09-28_16h10.08.025,visualsearch,2023.1.3,59.95937152587215,
186,0,186,0,5,386.4165016999905,386.4165016999905,386.4165016999905,[0.2962962962962963],[0.3194444444444444],[1],[0],[0],[1.8178273999947123],['target'],1v,001,2023-09-28_16h10.08.025,visualsearch,2023.1.3,59.95937152587215,
187,0,187,0,10,388.39887469999667,388.39887469999667,388.39887469999667,[0.2518518518518518],[0.4527777777777778],[1],[0],[0],[1.4415627000125824],['target'],1v,001,2023-09-28_16h10.08.025,visualsearch,2023.1.3,59.95937152587215,
188,0,188,0,5,389.8777426999877,389.8777426999877,389.8777426999877,[0.07037037037037037],[-0.42314814814814816],[1],[0],[0],[2.633135600000969],['target'],1v,001,2023-09-28_16h10.08.025,visualsearch,2023.1.3,59.95937152587215,
189,0,189,0,5,392.57109359999595,392.57109359999595,392.57109359999595,[0.09351851851851851],[-0.18611111111111112],[1],[0],[0],[1.1488265999942087],['target'],1v,001,2023-09-28_16h10.08.025,visualsearch,2023.1.3,59.95937152587215,
190,0,190,0,10,393.8619757999986,393.8619757999986,393.8619757999986,[0.4222222222222222],[-0.10925925925925926],[1],[0],[0],[2.394927200002712],['target'],1v,001,2023-09-28_16h10.08.025,visualsearch,2023.1.3,59.95937152587215,
191,0,191,0,5,396.28937689999293,396.28937689999293,396.28937689999293,[0.2111111111111111],[0.17685185185185184],[1],[0],[0],[1.1751935000065714],['target'],1v,001,2023-09-28_16h10.08.025,visualsearch,2023.1.3,59.95937152587215,
192,0,192,0,5,397.51369669999985,397.51369669999985,397.51369669999985,[-0.43333333333333335],[-0.07314814814814814],[1],[0],[0],[1.7551164000033168],['target'],1v,001,2023-09-28_16h10.08.025,visualsearch,2023.1.3,59.95937152587215,
193,0,193,0,5,399.3601290999941,399.3601290999941,399.3601290999941,[-0.30092592592592593],[0.21851851851851853],[1],[0],[0],[1.8171621999936178],['target'],1v,001,2023-09-28_16h10.08.025,visualsearch,2023.1.3,59.95937152587215,
194,0,194,0,5,401.2163950999966,401.2163950999966,401.2163950999966,[0.21666666666666667],[-0.4546296296296296],[1],[0],[0],[2.1508656999940285],['target'],1v,001,2023-09-28_16h10.08.025,visualsearch,2023.1.3,59.95937152587215,
195,0,195,0,10,403.51762159999635,403.51762159999635,403.51762159999635,[-0.25092592592592594],[0.31851851851851853],[1],[0],[0],[2.4970627000002423],['target'],1v,001,2023-09-28_16h10.08.025,visualsearch,2023.1.3,59.95937152587215,
196,0,196,0,10,406.05747789998713,406.05747789998713,406.05747789998713,[-0.45],[0.31666666666666665],[1],[0],[0],[2.894745300000068],['target'],1v,001,2023-09-28_16h10.08.025,visualsearch,2023.1.3,59.95937152587215,
197,0,197,0,10,409.02537979999033,409.02537979999033,409.02537979999033,[0.16296296296296298],[0.31296296296296294],[1],[0],[0],[1.6060853999952087],['target'],1v,001,2023-09-28_16h10.08.025,visualsearch,2023.1.3,59.95937152587215,
198,0,198,0,10,410.7891787999979,410.7891787999979,410.7891787999979,[-0.22962962962962963],[0.39537037037037037],[1],[0],[0],[2.238044199999422],['target'],1v,001,2023-09-28_16h10.08.025,visualsearch,2023.1.3,59.95937152587215,
199,0,199,0,10,413.0993535999878,413.0993535999878,413.0993535999878,[-0.06481481481481481],[-0.002777777777777778],[1],[0],[0],[1.7288585000060266],['target'],1v,001,2023-09-28_16h10.08.025,visualsearch,2023.1.3,59.95937152587215,
