trials.thisRepN,trials.thisTrialN,trials.thisN,trials.thisIndex,num_distr,fixation.started,target.started,mouse.started,mouse.x,mouse.y,mouse.leftButton,mouse.midButton,mouse.rightButton,mouse.time,mouse.clicked_name,participant,session,date,expName,psychopyVersion,frameRate,
0,0,0,0,10,29.105930399993667,29.105930399993667,29.105930399993667,[-0.06018518518518518],[-0.040740740740740744],[1],[0],[0],[1.7695613999967463],['target'],2s,001,2023-09-28_16h59.37.918,visualsearch,2023.1.3,59.923262268514826,
1,0,1,0,5,30.9123583999899,30.9123583999899,30.9123583999899,[0.017592592592592594],[-0.1287037037037037],[1],[0],[0],[1.0262266000063391],['target'],2s,001,2023-09-28_16h59.37.918,visualsearch,2023.1.3,59.923262268514826,
2,0,2,0,10,32.03886220000277,32.03886220000277,32.03886220000277,[0.14814814814814814],[-0.20462962962962963],[1],[0],[0],[1.1479981000011321],['target'],2s,001,2023-09-28_16h59.37.918,visualsearch,2023.1.3,59.923262268514826,
3,0,3,0,5,33.20359009999083,33.20359009999083,33.20359009999083,[0.3],[-0.037037037037037035],[1],[0],[0],[0.806580499993288],['target'],2s,001,2023-09-28_16h59.37.918,visualsearch,2023.1.3,59.923262268514826,
4,0,4,0,5,34.08205859998998,34.08205859998998,34.08205859998998,[-0.2037037037037037],[0.2722222222222222],[1],[0],[0],[1.3823448000039207],['target'],2s,001,2023-09-28_16h59.37.918,visualsearch,2023.1.3,59.923262268514826,
5,0,5,0,5,35.510296099993866,35.510296099993866,35.510296099993866,[0.1574074074074074],[0.2537037037037037],[1],[0],[0],[1.317606099997647],['target'],2s,001,2023-09-28_16h59.37.918,visualsearch,2023.1.3,59.923262268514826,
6,0,6,0,10,36.91119260000414,36.91119260000414,36.91119260000414,[-0.004629629629629629],[0.07777777777777778],[1],[0],[0],[1.5636213999969186],['target'],2s,001,2023-09-28_16h59.37.918,visualsearch,2023.1.3,59.923262268514826,
7,0,7,0,5,38.56760500000382,38.56760500000382,38.56760500000382,[-0.36666666666666664],[0.3925925925925926],[1],[0],[0],[2.0836788000015076],['target'],2s,001,2023-09-28_16h59.37.918,visualsearch,2023.1.3,59.923262268514826,
8,0,8,0,10,40.71899399999529,40.71899399999529,40.71899399999529,[0.09722222222222222],[0.45740740740740743],[1],[0],[0],[1.0952151999954367],['target'],2s,001,2023-09-28_16h59.37.918,visualsearch,2023.1.3,59.923262268514826,
9,0,9,0,5,41.864090299990494,41.864090299990494,41.864090299990494,[-0.04722222222222222],[0.041666666666666664],[1],[0],[0],[1.1553710000007413],['target'],2s,001,2023-09-28_16h59.37.918,visualsearch,2023.1.3,59.923262268514826,
10,0,10,0,5,43.07548050000332,43.07548050000332,43.07548050000332,[0.34814814814814815],[0.17962962962962964],[1],[0],[0],[1.669986599998083],['target'],2s,001,2023-09-28_16h59.37.918,visualsearch,2023.1.3,59.923262268514826,
11,0,11,0,5,44.83108109999739,44.83108109999739,44.83108109999739,[0.18703703703703703],[0.4222222222222222],[1],[0],[0],[1.010621599998558],['target'],2s,001,2023-09-28_16h59.37.918,visualsearch,2023.1.3,59.923262268514826,
12,0,12,0,5,45.882213899996714,45.882213899996714,45.882213899996714,[0.28055555555555556],[-0.09259259259259259],[1],[0],[0],[1.312661100004334],['target'],2s,001,2023-09-28_16h59.37.918,visualsearch,2023.1.3,59.923262268514826,
13,0,13,0,5,47.24291319999611,47.24291319999611,47.24291319999611,[0.2796296296296296],[-0.1638888888888889],[1],[0],[0],[1.7905548999988241],['target'],2s,001,2023-09-28_16h59.37.918,visualsearch,2023.1.3,59.923262268514826,
14,0,14,0,10,49.110430200002156,49.110430200002156,49.110430200002156,[-0.008333333333333333],[0.3990740740740741],[1],[0],[0],[1.5919266999990214],['target'],2s,001,2023-09-28_16h59.37.918,visualsearch,2023.1.3,59.923262268514826,
15,0,15,0,5,50.74932859999535,50.74932859999535,50.74932859999535,[0.33796296296296297],[-0.3472222222222222],[1],[0],[0],[1.8367341999983182],['target'],2s,001,2023-09-28_16h59.37.918,visualsearch,2023.1.3,59.923262268514826,
16,0,16,0,10,52.712020199993276,52.712020199993276,52.712020199993276,[0.09537037037037037],[0.11944444444444445],[1],[0],[0],[1.6799648000014713],['target'],2s,001,2023-09-28_16h59.37.918,visualsearch,2023.1.3,59.923262268514826,
17,0,17,0,5,54.45239199999196,54.45239199999196,54.45239199999196,[-0.12222222222222222],[-0.3055555555555556],[1],[0],[0],[1.53669350000564],['target'],2s,001,2023-09-28_16h59.37.918,visualsearch,2023.1.3,59.923262268514826,
18,0,18,0,5,56.02676649999921,56.02676649999921,56.02676649999921,[-0.13518518518518519],[0.06851851851851852],[1],[0],[0],[1.8332634999969741],['target'],2s,001,2023-09-28_16h59.37.918,visualsearch,2023.1.3,59.923262268514826,
19,0,19,0,10,57.97357709999778,57.97357709999778,57.97357709999778,[-0.33796296296296297],[-0.20462962962962963],[1],[0],[0],[2.1706916999974055],['target'],2s,001,2023-09-28_16h59.37.918,visualsearch,2023.1.3,59.923262268514826,
20,0,20,0,10,60.22582649999822,60.22582649999822,60.22582649999822,[0.03888888888888889],[-0.36203703703703705],[1],[0],[0],[1.1327483999921242],['target'],2s,001,2023-09-28_16h59.37.918,visualsearch,2023.1.3,59.923262268514826,
21,0,21,0,10,61.43898039999476,61.43898039999476,61.43898039999476,[-0.20555555555555555],[-0.1574074074074074],[1],[0],[0],[0.8961429000046337],['target'],2s,001,2023-09-28_16h59.37.918,visualsearch,2023.1.3,59.923262268514826,
22,0,22,0,5,62.38106020000123,62.38106020000123,62.38106020000123,[0.38333333333333336],[0.1935185185185185],[1],[0],[0],[1.681969500001287],['target'],2s,001,2023-09-28_16h59.37.918,visualsearch,2023.1.3,59.923262268514826,
23,0,23,0,5,64.14819599999464,64.14819599999464,64.14819599999464,[0.23333333333333334],[-0.18055555555555555],[1],[0],[0],[1.2930838000029325],['target'],2s,001,2023-09-28_16h59.37.918,visualsearch,2023.1.3,59.923262268514826,
24,0,24,0,10,65.586046299999,65.586046299999,65.586046299999,[-0.3611111111111111],[0.007407407407407408],[1],[0],[0],[2.120912300000782],['target'],2s,001,2023-09-28_16h59.37.918,visualsearch,2023.1.3,59.923262268514826,
25,0,25,0,10,67.80363870000292,67.80363870000292,67.80363870000292,[0.06666666666666667],[0.3824074074074074],[1],[0],[0],[1.9692277999856742],['target'],2s,001,2023-09-28_16h59.37.918,visualsearch,2023.1.3,59.923262268514826,
26,0,26,0,10,69.85251519999292,69.85251519999292,69.85251519999292,[0.07222222222222222],[-0.46296296296296297],[1],[0],[0],[2.146621000007144],['target'],2s,001,2023-09-28_16h59.37.918,visualsearch,2023.1.3,59.923262268514826,
27,0,27,0,5,72.0441165999946,72.0441165999946,72.0441165999946,[0.005555555555555556],[-0.462037037037037],[1],[0],[0],[1.1671235999965575],['target'],2s,001,2023-09-28_16h59.37.918,visualsearch,2023.1.3,59.923262268514826,
28,0,28,0,5,73.26602889999049,73.26602889999049,73.26602889999049,[-0.4527777777777778],[0.03333333333333333],[1],[0],[0],[1.7171713999996427],['target'],2s,001,2023-09-28_16h59.37.918,visualsearch,2023.1.3,59.923262268514826,
29,0,29,0,10,75.11438099999214,75.11438099999214,75.11438099999214,[0.4222222222222222],[0.4305555555555556],[1],[0],[0],[1.7876601999887498],['target'],2s,001,2023-09-28_16h59.37.918,visualsearch,2023.1.3,59.923262268514826,
30,0,30,0,10,76.98284919999423,76.98284919999423,76.98284919999423,[0.16296296296296298],[-0.21574074074074073],[1],[0],[0],[1.482004399993457],['target'],2s,001,2023-09-28_16h59.37.918,visualsearch,2023.1.3,59.923262268514826,
31,0,31,0,10,78.61677320000308,78.61677320000308,78.61677320000308,[-0.14907407407407408],[0.075],[1],[0],[0],[1.6363908000057563],['target'],2s,001,2023-09-28_16h59.37.918,visualsearch,2023.1.3,59.923262268514826,
32,0,32,0,10,80.3501169999945,80.3501169999945,80.3501169999945,[-0.01574074074074074],[0.10740740740740741],[1],[0],[0],[1.307360000006156],['target'],2s,001,2023-09-28_16h59.37.918,visualsearch,2023.1.3,59.923262268514826,
33,0,33,0,5,81.7017932000017,81.7017932000017,81.7017932000017,[0.03333333333333333],[0.3675925925925926],[1],[0],[0],[4.38117439999769],['target'],2s,001,2023-09-28_16h59.37.918,visualsearch,2023.1.3,59.923262268514826,
34,0,34,0,10,86.16688009999052,86.16688009999052,86.16688009999052,[0.3824074074074074],[0.4527777777777778],[1],[0],[0],[1.5279828000057023],['target'],2s,001,2023-09-28_16h59.37.918,visualsearch,2023.1.3,59.923262268514826,
35,0,35,0,10,87.77049609999813,87.77049609999813,87.77049609999813,[0.32592592592592595],[0.4462962962962963],[1],[0],[0],[1.9965511999907903],['target'],2s,001,2023-09-28_16h59.37.918,visualsearch,2023.1.3,59.923262268514826,
36,0,36,0,5,89.78139249999367,89.78139249999367,89.78139249999367,[-0.43796296296296294],[0.4101851851851852],[1],[0],[0],[1.82660549999855],['target'],2s,001,2023-09-28_16h59.37.918,visualsearch,2023.1.3,59.923262268514826,
37,0,37,0,5,91.65052179999475,91.65052179999475,91.65052179999475,[-0.08796296296296297],[0.3537037037037037],[1],[0],[0],[1.156172199989669],['target'],2s,001,2023-09-28_16h59.37.918,visualsearch,2023.1.3,59.923262268514826,
38,0,38,0,10,92.88196009999956,92.88196009999956,92.88196009999956,[0.07037037037037037],[-0.42685185185185187],[1],[0],[0],[1.9118782000005012],['target'],2s,001,2023-09-28_16h59.37.918,visualsearch,2023.1.3,59.923262268514826,
39,0,39,0,5,94.83017839999229,94.83017839999229,94.83017839999229,[-0.05],[-0.3675925925925926],[1],[0],[0],[0.8984957000066061],['target'],2s,001,2023-09-28_16h59.37.918,visualsearch,2023.1.3,59.923262268514826,
40,0,40,0,10,95.7960466999939,95.7960466999939,95.7960466999939,[0.07592592592592592],[-0.075],[1],[0],[0],[1.3086679999978514],['target'],2s,001,2023-09-28_16h59.37.918,visualsearch,2023.1.3,59.923262268514826,
41,0,41,0,10,97.16492009999638,97.16492009999638,97.16492009999638,[-0.024074074074074074],[0.29907407407407405],[1],[0],[0],[1.1987920999963535],['target'],2s,001,2023-09-28_16h59.37.918,visualsearch,2023.1.3,59.923262268514826,
42,0,42,0,10,98.44321789999958,98.44321789999958,98.44321789999958,[0.32037037037037036],[-0.2324074074074074],[1],[0],[0],[2.6567157999961637],['target'],2s,001,2023-09-28_16h59.37.918,visualsearch,2023.1.3,59.923262268514826,
43,0,43,0,10,101.1655136999907,101.1655136999907,101.1655136999907,[-0.4759259259259259],[0.24166666666666667],[1],[0],[0],[2.844526200002292],['target'],2s,001,2023-09-28_16h59.37.918,visualsearch,2023.1.3,59.923262268514826,
44,0,44,0,10,104.07750579999993,104.07750579999993,104.07750579999993,[-0.06944444444444445],[0.14351851851851852],[1],[0],[0],[2.0422890999907395],['target'],2s,001,2023-09-28_16h59.37.918,visualsearch,2023.1.3,59.923262268514826,
45,0,45,0,5,106.17235100000107,106.17235100000107,106.17235100000107,[-0.4601851851851852],[0.15],[1],[0],[0],[1.5546515000023646],['target'],2s,001,2023-09-28_16h59.37.918,visualsearch,2023.1.3,59.923262268514826,
46,0,46,0,10,107.87574079999467,107.87574079999467,107.87574079999467,[-0.11574074074074074],[0.11203703703703703],[1],[0],[0],[1.0637443000014173],['target'],2s,001,2023-09-28_16h59.37.918,visualsearch,2023.1.3,59.923262268514826,
47,0,47,0,5,109.0171951999946,109.0171951999946,109.0171951999946,[0.3388888888888889],[0.4962962962962963],[1],[0],[0],[2.3859573999943677],['target'],2s,001,2023-09-28_16h59.37.918,visualsearch,2023.1.3,59.923262268514826,
48,0,48,0,5,111.43480930000078,111.43480930000078,111.43480930000078,[0.30833333333333335],[-0.3592592592592593],[1],[0],[0],[1.680503099996713],['target'],2s,001,2023-09-28_16h59.37.918,visualsearch,2023.1.3,59.923262268514826,
49,0,49,0,5,113.13728870000341,113.13728870000341,113.13728870000341,[-0.33796296296296297],[-0.175],[0],[0],[1],[1.639517400006298],['target'],2s,001,2023-09-28_16h59.37.918,visualsearch,2023.1.3,59.923262268514826,
50,0,50,0,5,114.84562009999354,114.84562009999354,114.84562009999354,[0.24074074074074073],[0.362962962962963],[1],[0],[0],[1.555125799990492],['target'],2s,001,2023-09-28_16h59.37.918,visualsearch,2023.1.3,59.923262268514826,
51,0,51,0,5,116.45379309999407,116.45379309999407,116.45379309999407,[-0.19722222222222222],[0.4787037037037037],[1],[0],[0],[1.2851133000076516],['target'],2s,001,2023-09-28_16h59.37.918,visualsearch,2023.1.3,59.923262268514826,
52,0,52,0,5,117.84015709999949,117.84015709999949,117.84015709999949,[-0.33611111111111114],[0.075],[0],[0],[1],[1.7749459000042407],['target'],2s,001,2023-09-28_16h59.37.918,visualsearch,2023.1.3,59.923262268514826,
53,0,53,0,10,119.6928642999992,119.6928642999992,119.6928642999992,[-0.010185185185185186],[0.2796296296296296],[1],[0],[0],[1.7891051999904448],['target'],2s,001,2023-09-28_16h59.37.918,visualsearch,2023.1.3,59.923262268514826,
54,0,54,0,10,121.53448380000191,121.53448380000191,121.53448380000191,[-0.15925925925925927],[0.05925925925925926],[1],[0],[0],[1.334104200010188],['target'],2s,001,2023-09-28_16h59.37.918,visualsearch,2023.1.3,59.923262268514826,
55,0,55,0,10,122.98263949999819,122.98263949999819,122.98263949999819,[0.24351851851851852],[-0.058333333333333334],[1],[0],[0],[1.7321895999921253],['target'],2s,001,2023-09-28_16h59.37.918,visualsearch,2023.1.3,59.923262268514826,
56,0,56,0,10,124.81122909999976,124.81122909999976,124.81122909999976,[-0.20277777777777778],[-0.4101851851851852],[1],[0],[0],[2.598831399998744],['target'],2s,001,2023-09-28_16h59.37.918,visualsearch,2023.1.3,59.923262268514826,
57,0,57,0,10,127.48597809999774,127.48597809999774,127.48597809999774,[-0.28425925925925927],[-0.13333333333333333],[1],[0],[0],[1.1358516000036616],['target'],2s,001,2023-09-28_16h59.37.918,visualsearch,2023.1.3,59.923262268514826,
58,0,58,0,5,128.68786019999243,128.68786019999243,128.68786019999243,[-0.08981481481481482],[-0.3861111111111111],[1],[0],[0],[2.1703089000075124],['target'],2s,001,2023-09-28_16h59.37.918,visualsearch,2023.1.3,59.923262268514826,
59,0,59,0,5,130.90707719999773,130.90707719999773,130.90707719999773,[0.05648148148148148],[0.32314814814814813],[1],[0],[0],[1.7888930999906734],['target'],2s,001,2023-09-28_16h59.37.918,visualsearch,2023.1.3,59.923262268514826,
60,0,60,0,5,132.76281899999594,132.76281899999594,132.76281899999594,[0.12777777777777777],[-0.030555555555555555],[1],[0],[0],[1.297998900001403],['target'],2s,001,2023-09-28_16h59.37.918,visualsearch,2023.1.3,59.923262268514826,
61,0,61,0,5,134.142322899992,134.142322899992,134.142322899992,[-0.4740740740740741],[0.18981481481481483],[1],[0],[0],[1.5485122999962186],['target'],2s,001,2023-09-28_16h59.37.918,visualsearch,2023.1.3,59.923262268514826,
62,0,62,0,10,135.79091009999684,135.79091009999684,135.79091009999684,[0.4212962962962963],[0.32037037037037036],[1],[0],[0],[2.1780495999992127],['target'],2s,001,2023-09-28_16h59.37.918,visualsearch,2023.1.3,59.923262268514826,
63,0,63,0,5,138.0149514999939,138.0149514999939,138.0149514999939,[0.11574074074074074],[-0.19537037037037036],[1],[0],[0],[1.29435480000393],['target'],2s,001,2023-09-28_16h59.37.918,visualsearch,2023.1.3,59.923262268514826,
64,0,64,0,5,139.38425180000195,139.38425180000195,139.38425180000195,[0.3055555555555556],[0.09722222222222222],[1],[0],[0],[1.1040420000063023],['target'],2s,001,2023-09-28_16h59.37.918,visualsearch,2023.1.3,59.923262268514826,
65,0,65,0,10,140.56939899999998,140.56939899999998,140.56939899999998,[-0.375],[-0.2037037037037037],[1],[0],[0],[2.724342000001343],['target'],2s,001,2023-09-28_16h59.37.918,visualsearch,2023.1.3,59.923262268514826,
66,0,66,0,5,143.37314440000046,143.37314440000046,143.37314440000046,[-0.03888888888888889],[0.4],[1],[0],[0],[1.4982965999952285],['target'],2s,001,2023-09-28_16h59.37.918,visualsearch,2023.1.3,59.923262268514826,
67,0,67,0,5,144.92340780000086,144.92340780000086,144.92340780000086,[-0.4212962962962963],[-0.04814814814814815],[1],[0],[0],[1.2403007999964757],['target'],2s,001,2023-09-28_16h59.37.918,visualsearch,2023.1.3,59.923262268514826,
68,0,68,0,5,146.20770210000046,146.20770210000046,146.20770210000046,[0.47962962962962963],[0.2638888888888889],[1],[0],[0],[1.98385399999097],['target'],2s,001,2023-09-28_16h59.37.918,visualsearch,2023.1.3,59.923262268514826,
69,0,69,0,10,148.34019540000008,148.34019540000008,148.34019540000008,[0.45740740740740743],[-0.09537037037037037],[1],[0],[0],[2.249845499987714],['target'],2s,001,2023-09-28_16h59.37.918,visualsearch,2023.1.3,59.923262268514826,
70,0,70,0,5,150.60202920000302,150.60202920000302,150.60202920000302,[-0.12407407407407407],[-0.021296296296296296],[1],[0],[0],[1.4742708999983734],['target'],2s,001,2023-09-28_16h59.37.918,visualsearch,2023.1.3,59.923262268514826,
71,0,71,0,5,152.14378959999885,152.14378959999885,152.14378959999885,[-0.15],[0.11851851851851852],[1],[0],[0],[1.0698241999925813],['target'],2s,001,2023-09-28_16h59.37.918,visualsearch,2023.1.3,59.923262268514826,
72,0,72,0,5,153.28199089999544,153.28199089999544,153.28199089999544,[-0.16944444444444445],[0.018518518518518517],[1],[0],[0],[1.1469614999950863],['target'],2s,001,2023-09-28_16h59.37.918,visualsearch,2023.1.3,59.923262268514826,
73,0,73,0,10,154.59201569999277,154.59201569999277,154.59201569999277,[0.2175925925925926],[0.3472222222222222],[1],[0],[0],[1.9643398999905912],['target'],2s,001,2023-09-28_16h59.37.918,visualsearch,2023.1.3,59.923262268514826,
74,0,74,0,5,156.60732349999307,156.60732349999307,156.60732349999307,[0.3111111111111111],[0.31296296296296294],[1],[0],[0],[1.309296000006725],['target'],2s,001,2023-09-28_16h59.37.918,visualsearch,2023.1.3,59.923262268514826,
75,0,75,0,10,158.08580279999296,158.08580279999296,158.08580279999296,[-0.11203703703703703],[-0.2351851851851852],[1],[0],[0],[3.7307890000083717],['target'],2s,001,2023-09-28_16h59.37.918,visualsearch,2023.1.3,59.923262268514826,
76,0,76,0,5,161.84434589999728,161.84434589999728,161.84434589999728,[-0.2722222222222222],[0.47129629629629627],[1],[0],[0],[2.1720265000039944],['target'],2s,001,2023-09-28_16h59.37.918,visualsearch,2023.1.3,59.923262268514826,
77,0,77,0,10,164.18654989999777,164.18654989999777,164.18654989999777,[-0.35648148148148145],[-0.36574074074074076],[1],[0],[0],[1.702889399995911],['target'],2s,001,2023-09-28_16h59.37.918,visualsearch,2023.1.3,59.923262268514826,
78,0,78,0,10,165.9545044999977,165.9545044999977,165.9545044999977,[0.4546296296296296],[0.09444444444444444],[1],[0],[0],[1.6578507000085665],['target'],2s,001,2023-09-28_16h59.37.918,visualsearch,2023.1.3,59.923262268514826,
79,0,79,0,10,167.72235589999764,167.72235589999764,167.72235589999764,[0.31574074074074077],[-0.4703703703703704],[1],[0],[0],[3.7230239999917103],['target'],2s,001,2023-09-28_16h59.37.918,visualsearch,2023.1.3,59.923262268514826,
80,0,80,0,5,171.4701103999978,171.4701103999978,171.4701103999978,[0.225],[0.49537037037037035],[1],[0],[0],[2.4730299999937415],['target'],2s,001,2023-09-28_16h59.37.918,visualsearch,2023.1.3,59.923262268514826,
81,0,81,0,5,174.03508289999445,174.03508289999445,174.03508289999445,[-0.08888888888888889],[-0.4185185185185185],[1],[0],[0],[1.8144065000087721],['target'],2s,001,2023-09-28_16h59.37.918,visualsearch,2023.1.3,59.923262268514826,
82,0,82,0,10,175.93049749999773,175.93049749999773,175.93049749999773,[0.04351851851851852],[0.225],[1],[0],[0],[1.3424764999945182],['target'],2s,001,2023-09-28_16h59.37.918,visualsearch,2023.1.3,59.923262268514826,
83,0,83,0,10,177.35971209999116,177.35971209999116,177.35971209999116,[0.25555555555555554],[0.46944444444444444],[1],[0],[0],[2.1344456000078935],['target'],2s,001,2023-09-28_16h59.37.918,visualsearch,2023.1.3,59.923262268514826,
84,0,84,0,5,179.55116239999188,179.55116239999188,179.55116239999188,[-0.26296296296296295],[-0.4842592592592593],[1],[0],[0],[1.8965827000065474],['target'],2s,001,2023-09-28_16h59.37.918,visualsearch,2023.1.3,59.923262268514826,
85,0,85,0,10,181.52604149999388,181.52604149999388,181.52604149999388,[0.26666666666666666],[-0.3962962962962963],[1],[0],[0],[1.9916751999990083],['target'],2s,001,2023-09-28_16h59.37.918,visualsearch,2023.1.3,59.923262268514826,
86,0,86,0,10,183.63811030000215,183.63811030000215,183.63811030000215,[-0.30648148148148147],[-0.1814814814814815],[1],[0],[0],[2.3195462000003317],['target'],2s,001,2023-09-28_16h59.37.918,visualsearch,2023.1.3,59.923262268514826,
87,0,87,0,5,185.98595600000408,185.98595600000408,185.98595600000408,[-0.30833333333333335],[-0.44907407407407407],[1],[0],[0],[1.7418573000031756],['target'],2s,001,2023-09-28_16h59.37.918,visualsearch,2023.1.3,59.923262268514826,
88,0,88,0,10,187.86709449999034,187.86709449999034,187.86709449999034,[0.3888888888888889],[-0.1824074074074074],[1],[0],[0],[2.63695000000007],['target'],2s,001,2023-09-28_16h59.37.918,visualsearch,2023.1.3,59.923262268514826,
89,0,89,0,5,190.52356370000052,190.52356370000052,190.52356370000052,[-0.3111111111111111],[0.4648148148148148],[1],[0],[0],[1.4310023999860277],['target'],2s,001,2023-09-28_16h59.37.918,visualsearch,2023.1.3,59.923262268514826,
90,0,90,0,5,192.02352259999316,192.02352259999316,192.02352259999316,[0.49074074074074076],[-0.38055555555555554],[1],[0],[0],[2.0983832999918377],['target'],2s,001,2023-09-28_16h59.37.918,visualsearch,2023.1.3,59.923262268514826,
91,0,91,0,5,194.20541850000154,194.20541850000154,194.20541850000154,[-0.027777777777777776],[-0.3972222222222222],[1],[0],[0],[1.6635841999959666],['target'],2s,001,2023-09-28_16h59.37.918,visualsearch,2023.1.3,59.923262268514826,
92,0,92,0,5,195.91060210000433,195.91060210000433,195.91060210000433,[0.17685185185185184],[0.46111111111111114],[1],[0],[0],[1.976968900009524],[],2s,001,2023-09-28_16h59.37.918,visualsearch,2023.1.3,59.923262268514826,
93,0,93,0,5,197.95850690000225,197.95850690000225,197.95850690000225,[0.2101851851851852],[-0.40370370370370373],[1],[0],[0],[1.9365836999932071],['target'],2s,001,2023-09-28_16h59.37.918,visualsearch,2023.1.3,59.923262268514826,
94,0,94,0,10,199.9856967999949,199.9856967999949,199.9856967999949,[-0.21481481481481482],[0.49537037037037035],[1],[0],[0],[3.2233183000062127],['target'],2s,001,2023-09-28_16h59.37.918,visualsearch,2023.1.3,59.923262268514826,
95,0,95,0,10,203.25679060000402,203.25679060000402,203.25679060000402,[-0.11388888888888889],[0.23055555555555557],[1],[0],[0],[2.0885511000087718],['target'],2s,001,2023-09-28_16h59.37.918,visualsearch,2023.1.3,59.923262268514826,
96,0,96,0,10,205.4337971999921,205.4337971999921,205.4337971999921,[0.4777777777777778],[-0.03518518518518519],[1],[0],[0],[1.8241452999936882],['target'],2s,001,2023-09-28_16h59.37.918,visualsearch,2023.1.3,59.923262268514826,
97,0,97,0,10,207.33930419999524,207.33930419999524,207.33930419999524,[-0.31851851851851853],[0.49166666666666664],[1],[0],[0],[3.1444378000014694],['target'],2s,001,2023-09-28_16h59.37.918,visualsearch,2023.1.3,59.923262268514826,
98,0,98,0,5,210.5319618999929,210.5319618999929,210.5319618999929,[-0.36018518518518516],[0.4962962962962963],[1],[0],[0],[1.7065545999939786],['target'],2s,001,2023-09-28_16h59.37.918,visualsearch,2023.1.3,59.923262268514826,
99,0,99,0,10,212.32501829999092,212.32501829999092,212.32501829999092,[0.48333333333333334],[0.25462962962962965],[1],[0],[0],[1.7715011999971466],['target'],2s,001,2023-09-28_16h59.37.918,visualsearch,2023.1.3,59.923262268514826,
100,0,100,0,10,214.26147359999595,214.26147359999595,214.26147359999595,[0.25833333333333336],[0.37777777777777777],[1],[0],[0],[1.2463371999911033],['target'],2s,001,2023-09-28_16h59.37.918,visualsearch,2023.1.3,59.923262268514826,
101,0,101,0,5,215.53655819999403,215.53655819999403,215.53655819999403,[0.21666666666666667],[0.18703703703703703],[1],[0],[0],[1.6512030999874696],['target'],2s,001,2023-09-28_16h59.37.918,visualsearch,2023.1.3,59.923262268514826,
102,0,102,0,10,217.30698660000053,217.30698660000053,217.30698660000053,[-0.22962962962962963],[-0.3685185185185185],[1],[0],[0],[2.9096174000005703],['target'],2s,001,2023-09-28_16h59.37.918,visualsearch,2023.1.3,59.923262268514826,
103,0,103,0,5,220.27052659999754,220.27052659999754,220.27052659999754,[0.3731481481481482],[0.4027777777777778],[1],[0],[0],[1.8662229000037769],['target'],2s,001,2023-09-28_16h59.37.918,visualsearch,2023.1.3,59.923262268514826,
104,0,104,0,10,222.21640239999397,222.21640239999397,222.21640239999397,[-0.022222222222222223],[0.12314814814814815],[1],[0],[0],[1.3891042999894125],['target'],2s,001,2023-09-28_16h59.37.918,visualsearch,2023.1.3,59.923262268514826,
105,0,105,0,5,223.68970639999316,223.68970639999316,223.68970639999316,[-0.3648148148148148],[0.31203703703703706],[1],[0],[0],[1.1600887999957195],['target'],2s,001,2023-09-28_16h59.37.918,visualsearch,2023.1.3,59.923262268514826,
106,0,106,0,10,224.9331508000032,224.9331508000032,224.9331508000032,[-0.08055555555555556],[-0.43703703703703706],[1],[0],[0],[2.303426300000865],['target'],2s,001,2023-09-28_16h59.37.918,visualsearch,2023.1.3,59.923262268514826,
107,0,107,0,5,227.2792480999924,227.2792480999924,227.2792480999924,[0.011111111111111112],[-0.32314814814814813],[1],[0],[0],[0.8783655000006547],['target'],2s,001,2023-09-28_16h59.37.918,visualsearch,2023.1.3,59.923262268514826,
108,0,108,0,5,228.1892491000035,228.1892491000035,228.1892491000035,[-0.3675925925925926],[0.01574074074074074],[1],[0],[0],[1.1428795000101672],['target'],2s,001,2023-09-28_16h59.37.918,visualsearch,2023.1.3,59.923262268514826,
109,0,109,0,5,229.39250839999295,229.39250839999295,229.39250839999295,[-0.3648148148148148],[0.10555555555555556],[1],[0],[0],[1.1003442000073846],['target'],2s,001,2023-09-28_16h59.37.918,visualsearch,2023.1.3,59.923262268514826,
110,0,110,0,5,230.54850789999182,230.54850789999182,230.54850789999182,[-0.02962962962962963],[-0.23981481481481481],[1],[0],[0],[1.5138139000046067],['target'],2s,001,2023-09-28_16h59.37.918,visualsearch,2023.1.3,59.923262268514826,
111,0,111,0,5,232.1119910999987,232.1119910999987,232.1119910999987,[0.014814814814814815],[-0.016666666666666666],[1],[0],[0],[2.2699014999961946],['target'],2s,001,2023-09-28_16h59.37.918,visualsearch,2023.1.3,59.923262268514826,
112,0,112,0,5,234.45595589998993,234.45595589998993,234.45595589998993,[-0.4462962962962963],[0.42592592592592593],[1],[0],[0],[2.055646100008744],['target'],2s,001,2023-09-28_16h59.37.918,visualsearch,2023.1.3,59.923262268514826,
113,0,113,0,5,236.5562387999962,236.5562387999962,236.5562387999962,[0.462037037037037],[0.02962962962962963],[1],[0],[0],[1.8968276999949012],['target'],2s,001,2023-09-28_16h59.37.918,visualsearch,2023.1.3,59.923262268514826,
114,0,114,0,5,238.5456692000007,238.5456692000007,238.5456692000007,[0.10833333333333334],[-0.21851851851851853],[1],[0],[0],[1.6756404000043403],['target'],2s,001,2023-09-28_16h59.37.918,visualsearch,2023.1.3,59.923262268514826,
115,0,115,0,10,240.30894609999086,240.30894609999086,240.30894609999086,[-0.04814814814814815],[-0.11851851851851852],[1],[0],[0],[0.9711488000029931],['target'],2s,001,2023-09-28_16h59.37.918,visualsearch,2023.1.3,59.923262268514826,
116,0,116,0,5,241.3364517000009,241.3364517000009,241.3364517000009,[0.325],[0.2351851851851852],[1],[0],[0],[1.5899842999933753],['target'],2s,001,2023-09-28_16h59.37.918,visualsearch,2023.1.3,59.923262268514826,
117,0,117,0,5,242.9724533999979,242.9724533999979,242.9724533999979,[0.04722222222222222],[0.22777777777777777],[1],[0],[0],[1.201444399994216],['target'],2s,001,2023-09-28_16h59.37.918,visualsearch,2023.1.3,59.923262268514826,
118,0,118,0,10,244.2750318000035,244.2750318000035,244.2750318000035,[-0.3962962962962963],[-0.46296296296296297],[1],[0],[0],[2.648312600009376],['target'],2s,001,2023-09-28_16h59.37.918,visualsearch,2023.1.3,59.923262268514826,
119,0,119,0,5,246.96590879998985,246.96590879998985,246.96590879998985,[-0.03981481481481482],[-0.24444444444444444],[1],[0],[0],[1.1388244999980088],['target'],2s,001,2023-09-28_16h59.37.918,visualsearch,2023.1.3,59.923262268514826,
120,0,120,0,5,248.17916369999875,248.17916369999875,248.17916369999875,[-0.1425925925925926],[0.23796296296296296],[1],[0],[0],[1.4364146000007167],['target'],2s,001,2023-09-28_16h59.37.918,visualsearch,2023.1.3,59.923262268514826,
121,0,121,0,10,249.70172349999484,249.70172349999484,249.70172349999484,[0.4666666666666667],[-0.3194444444444444],[1],[0],[0],[2.3117898000054993],['target'],2s,001,2023-09-28_16h59.37.918,visualsearch,2023.1.3,59.923262268514826,
122,0,122,0,10,252.07442189998983,252.07442189998983,252.07442189998983,[-0.12314814814814815],[-0.22777777777777777],[1],[0],[0],[2.448133700003382],['target'],2s,001,2023-09-28_16h59.37.918,visualsearch,2023.1.3,59.923262268514826,
123,0,123,0,10,254.64208289999806,254.64208289999806,254.64208289999806,[0.12129629629629629],[-0.47962962962962963],[1],[0],[0],[1.3439546000008704],['target'],2s,001,2023-09-28_16h59.37.918,visualsearch,2023.1.3,59.923262268514826,
124,0,124,0,10,256.0609187999944,256.0609187999944,256.0609187999944,[0.16203703703703703],[-0.412962962962963],[1],[0],[0],[0.8291157000057865],['target'],2s,001,2023-09-28_16h59.37.918,visualsearch,2023.1.3,59.923262268514826,
125,0,125,0,10,256.9814348999935,256.9814348999935,256.9814348999935,[0.4564814814814815],[0.2851851851851852],[1],[0],[0],[1.8426743000018178],['target'],2s,001,2023-09-28_16h59.37.918,visualsearch,2023.1.3,59.923262268514826,
126,0,126,0,5,258.91756849999365,258.91756849999365,258.91756849999365,[-0.1111111111111111],[0.225],[1],[0],[0],[1.5144157000031555],['target'],2s,001,2023-09-28_16h59.37.918,visualsearch,2023.1.3,59.923262268514826,
127,0,127,0,5,260.4849480999983,260.4849480999983,260.4849480999983,[0.26851851851851855],[0.48518518518518516],[1],[0],[0],[2.248696499998914],['target'],2s,001,2023-09-28_16h59.37.918,visualsearch,2023.1.3,59.923262268514826,
128,0,128,0,10,262.90402780000295,262.90402780000295,262.90402780000295,[-0.4527777777777778],[-0.05462962962962963],[1],[0],[0],[3.2004544000083115],['target'],2s,001,2023-09-28_16h59.37.918,visualsearch,2023.1.3,59.923262268514826,
129,0,129,0,5,266.12323789999937,266.12323789999937,266.12323789999937,[0.18611111111111112],[0.017592592592592594],[1],[0],[0],[1.6925209000037285],['target'],2s,001,2023-09-28_16h59.37.918,visualsearch,2023.1.3,59.923262268514826,
130,0,130,0,10,267.9136686999991,267.9136686999991,267.9136686999991,[0.18611111111111112],[0.017592592592592594],[1],[0],[0],[0.5644162000098731],['target'],2s,001,2023-09-28_16h59.37.918,visualsearch,2023.1.3,59.923262268514826,
131,0,131,0,10,268.5840930999984,268.5840930999984,268.5840930999984,[-0.38981481481481484],[0.2814814814814815],[1],[0],[0],[2.4392996999958996],['target'],2s,001,2023-09-28_16h59.37.918,visualsearch,2023.1.3,59.923262268514826,
132,0,132,0,10,271.09622160000436,271.09622160000436,271.09622160000436,[-0.20833333333333334],[-0.14907407407407408],[1],[0],[0],[2.1543416999920737],['target'],2s,001,2023-09-28_16h59.37.918,visualsearch,2023.1.3,59.923262268514826,
133,0,133,0,10,273.3394912999938,273.3394912999938,273.3394912999938,[-0.4148148148148148],[0.053703703703703705],[1],[0],[0],[1.1565340999950422],['target'],2s,001,2023-09-28_16h59.37.918,visualsearch,2023.1.3,59.923262268514826,
134,0,134,0,5,274.5253587999905,274.5253587999905,274.5253587999905,[-0.44814814814814813],[0.4212962962962963],[1],[0],[0],[1.3376494999974966],['target'],2s,001,2023-09-28_16h59.37.918,visualsearch,2023.1.3,59.923262268514826,
135,0,135,0,5,275.9217597999959,275.9217597999959,275.9217597999959,[0.2953703703703704],[-0.12222222222222222],[1],[0],[0],[1.6235049000097206],['target'],2s,001,2023-09-28_16h59.37.918,visualsearch,2023.1.3,59.923262268514826,
136,0,136,0,10,277.6505576999916,277.6505576999916,277.6505576999916,[0.49444444444444446],[-0.0824074074074074],[1],[0],[0],[1.3358657000062522],['target'],2s,001,2023-09-28_16h59.37.918,visualsearch,2023.1.3,59.923262268514826,
137,0,137,0,5,279.04974609999044,279.04974609999044,279.04974609999044,[-0.3148148148148148],[-0.43333333333333335],[1],[0],[0],[1.8109884000004968],['target'],2s,001,2023-09-28_16h59.37.918,visualsearch,2023.1.3,59.923262268514826,
138,0,138,0,10,280.9333200999972,280.9333200999972,280.9333200999972,[0.40925925925925927],[0.30277777777777776],[1],[0],[0],[2.565030800004024],['target'],2s,001,2023-09-28_16h59.37.918,visualsearch,2023.1.3,59.923262268514826,
139,0,139,0,10,283.61751670000376,283.61751670000376,283.61751670000376,[-0.12222222222222222],[-0.13055555555555556],[1],[0],[0],[1.8070385000028182],['target'],2s,001,2023-09-28_16h59.37.918,visualsearch,2023.1.3,59.923262268514826,
140,0,140,0,10,285.49699529999634,285.49699529999634,285.49699529999634,[0.425],[0.004629629629629629],[1],[0],[0],[2.1170268999994732],['target'],2s,001,2023-09-28_16h59.37.918,visualsearch,2023.1.3,59.923262268514826,
141,0,141,0,5,287.66146239999216,287.66146239999216,287.66146239999216,[-0.3138888888888889],[0.19074074074074074],[1],[0],[0],[1.4998357000004034],['target'],2s,001,2023-09-28_16h59.37.918,visualsearch,2023.1.3,59.923262268514826,
142,0,142,0,10,289.31235110000125,289.31235110000125,289.31235110000125,[-0.08703703703703704],[-0.040740740740740744],[1],[0],[0],[1.5811387999856379],['target'],2s,001,2023-09-28_16h59.37.918,visualsearch,2023.1.3,59.923262268514826,
143,0,143,0,10,290.9613662999909,290.9613662999909,290.9613662999909,[-0.16296296296296298],[0.22962962962962963],[1],[0],[0],[1.4109769999922719],['target'],2s,001,2023-09-28_16h59.37.918,visualsearch,2023.1.3,59.923262268514826,
144,0,144,0,10,292.4566666000028,292.4566666000028,292.4566666000028,[0.032407407407407406],[0.225],[1],[0],[0],[1.1633446999912849],['target'],2s,001,2023-09-28_16h59.37.918,visualsearch,2023.1.3,59.923262268514826,
145,0,145,0,5,293.66318049999245,293.66318049999245,293.66318049999245,[-0.19907407407407407],[0.26296296296296295],[1],[0],[0],[1.2470056999882217],['target'],2s,001,2023-09-28_16h59.37.918,visualsearch,2023.1.3,59.923262268514826,
146,0,146,0,10,295.01158649999707,295.01158649999707,295.01158649999707,[-0.32685185185185184],[0.46111111111111114],[1],[0],[0],[3.3066760000074282],['target'],2s,001,2023-09-28_16h59.37.918,visualsearch,2023.1.3,59.923262268514826,
147,0,147,0,10,298.4149047999963,298.4149047999963,298.4149047999963,[-0.4527777777777778],[-0.20555555555555555],[1],[0],[0],[2.9060215999925276],['target'],2s,001,2023-09-28_16h59.37.918,visualsearch,2023.1.3,59.923262268514826,
148,0,148,0,10,301.39115499999025,301.39115499999025,301.39115499999025,[-0.3851851851851852],[-0.07777777777777778],[1],[0],[0],[1.8988888000021689],['target'],2s,001,2023-09-28_16h59.37.918,visualsearch,2023.1.3,59.923262268514826,
149,0,149,0,10,303.44399030000204,303.44399030000204,303.44399030000204,[0.17314814814814813],[-0.016666666666666666],[1],[0],[0],[1.3008690999995451],['target'],2s,001,2023-09-28_16h59.37.918,visualsearch,2023.1.3,59.923262268514826,
150,0,150,0,5,304.7837367000029,304.7837367000029,304.7837367000029,[0.34074074074074073],[-0.45],[1],[0],[0],[1.5414966999960598],['target'],2s,001,2023-09-28_16h59.37.918,visualsearch,2023.1.3,59.923262268514826,
151,0,151,0,10,306.4330207000021,306.4330207000021,306.4330207000021,[-0.021296296296296296],[0.48148148148148145],[1],[0],[0],[3.2046861999988323],['target'],2s,001,2023-09-28_16h59.37.918,visualsearch,2023.1.3,59.923262268514826,
152,0,152,0,10,309.752900099993,309.752900099993,309.752900099993,[0.11851851851851852],[-0.09074074074074075],[1],[0],[0],[1.6311140000034356],['target'],2s,001,2023-09-28_16h59.37.918,visualsearch,2023.1.3,59.923262268514826,
153,0,153,0,5,311.4410812999995,311.4410812999995,311.4410812999995,[0.35648148148148145],[-0.024074074074074074],[1],[0],[0],[1.3189349000022048],['target'],2s,001,2023-09-28_16h59.37.918,visualsearch,2023.1.3,59.923262268514826,
154,0,154,0,10,312.8818579999934,312.8818579999934,312.8818579999934,[-0.31203703703703706],[-0.012962962962962963],[1],[0],[0],[1.72259090001171],['target'],2s,001,2023-09-28_16h59.37.918,visualsearch,2023.1.3,59.923262268514826,
155,0,155,0,5,314.6113233999931,314.6113233999931,314.6113233999931,[0.46296296296296297],[-0.43148148148148147],[1],[0],[0],[1.9045029999979306],['target'],2s,001,2023-09-28_16h59.37.918,visualsearch,2023.1.3,59.923262268514826,
156,0,156,0,5,316.59142260000226,316.59142260000226,316.59142260000226,[0.40925925925925927],[0.27037037037037037],[1],[0],[0],[1.96017700000084],['target'],2s,001,2023-09-28_16h59.37.918,visualsearch,2023.1.3,59.923262268514826,
157,0,157,0,10,318.7276169999968,318.7276169999968,318.7276169999968,[-0.175],[0.43148148148148147],[1],[0],[0],[1.4232895000022836],['target'],2s,001,2023-09-28_16h59.37.918,visualsearch,2023.1.3,59.923262268514826,
158,0,158,0,5,320.1672955999966,320.1672955999966,320.1672955999966,[-0.4083333333333333],[-0.10740740740740741],[1],[0],[0],[1.4436318000080064],['target'],2s,001,2023-09-28_16h59.37.918,visualsearch,2023.1.3,59.923262268514826,
159,0,159,0,10,321.7192497999931,321.7192497999931,321.7192497999931,[0.06018518518518518],[0.41574074074074074],[1],[0],[0],[2.7506618999905186],['target'],2s,001,2023-09-28_16h59.37.918,visualsearch,2023.1.3,59.923262268514826,
160,0,160,0,10,324.5492130999919,324.5492130999919,324.5492130999919,[-0.25462962962962965],[0.10462962962962963],[1],[0],[0],[1.6226697999954922],['target'],2s,001,2023-09-28_16h59.37.918,visualsearch,2023.1.3,59.923262268514826,
161,0,161,0,10,326.24923069999204,326.24923069999204,326.24923069999204,[0.49166666666666664],[0.29259259259259257],[1],[0],[0],[2.0617629999906057],['target'],2s,001,2023-09-28_16h59.37.918,visualsearch,2023.1.3,59.923262268514826,
162,0,162,0,10,328.4592997,328.4592997,328.4592997,[0.07777777777777778],[0.20092592592592592],[1],[0],[0],[1.1800318000023253],['target'],2s,001,2023-09-28_16h59.37.918,visualsearch,2023.1.3,59.923262268514826,
163,0,163,0,10,329.731403400001,329.731403400001,329.731403400001,[0.37407407407407406],[-0.425],[1],[0],[0],[1.8504905000008876],['target'],2s,001,2023-09-28_16h59.37.918,visualsearch,2023.1.3,59.923262268514826,
164,0,164,0,5,331.6337554999918,331.6337554999918,331.6337554999918,[0.2814814814814815],[-0.25462962962962965],[1],[0],[0],[1.0228941999957897],['target'],2s,001,2023-09-28_16h59.37.918,visualsearch,2023.1.3,59.923262268514826,
165,0,165,0,10,332.8035796999902,332.8035796999902,332.8035796999902,[0.32685185185185184],[-0.33425925925925926],[1],[0],[0],[1.0106586999900173],['target'],2s,001,2023-09-28_16h59.37.918,visualsearch,2023.1.3,59.923262268514826,
166,0,166,0,10,333.88149119999434,333.88149119999434,333.88149119999434,[0.25],[0.49722222222222223],[1],[0],[0],[3.819926399999531],[],2s,001,2023-09-28_16h59.37.918,visualsearch,2023.1.3,59.923262268514826,
167,0,167,0,5,337.7585900999984,337.7585900999984,337.7585900999984,[-0.06759259259259259],[-0.13333333333333333],[1],[0],[0],[1.6862840999965556],['target'],2s,001,2023-09-28_16h59.37.918,visualsearch,2023.1.3,59.923262268514826,
168,0,168,0,5,339.5005314000009,339.5005314000009,339.5005314000009,[-0.14444444444444443],[0.44814814814814813],[1],[0],[0],[2.420022299993434],['target'],2s,001,2023-09-28_16h59.37.918,visualsearch,2023.1.3,59.923262268514826,
169,0,169,0,10,342.0236619999923,342.0236619999923,342.0236619999923,[0.29074074074074074],[0.40555555555555556],[1],[0],[0],[1.6687633999972604],['target'],2s,001,2023-09-28_16h59.37.918,visualsearch,2023.1.3,59.923262268514826,
170,0,170,0,10,343.76886869999,343.76886869999,343.76886869999,[-0.17037037037037037],[0.075],[1],[0],[0],[2.272889399988344],['target'],2s,001,2023-09-28_16h59.37.918,visualsearch,2023.1.3,59.923262268514826,
171,0,171,0,10,346.1113955999899,346.1113955999899,346.1113955999899,[0.4537037037037037],[0.3851851851851852],[1],[0],[0],[1.6500142000004416],['target'],2s,001,2023-09-28_16h59.37.918,visualsearch,2023.1.3,59.923262268514826,
172,0,172,0,10,347.8290452999936,347.8290452999936,347.8290452999936,[0.19722222222222222],[0.41203703703703703],[1],[0],[0],[1.1163132000074256],['target'],2s,001,2023-09-28_16h59.37.918,visualsearch,2023.1.3,59.923262268514826,
173,0,173,0,5,348.9907048000023,348.9907048000023,348.9907048000023,[0.43796296296296294],[-0.21851851851851853],[1],[0],[0],[1.654420199993183],['target'],2s,001,2023-09-28_16h59.37.918,visualsearch,2023.1.3,59.923262268514826,
174,0,174,0,10,350.70916769999894,350.70916769999894,350.70916769999894,[0.012037037037037037],[0.32407407407407407],[1],[0],[0],[1.6267953000060515],['target'],2s,001,2023-09-28_16h59.37.918,visualsearch,2023.1.3,59.923262268514826,
175,0,175,0,10,352.4199124000006,352.4199124000006,352.4199124000006,[0.13703703703703704],[-0.23703703703703705],[1],[0],[0],[2.1285272000095574],['target'],2s,001,2023-09-28_16h59.37.918,visualsearch,2023.1.3,59.923262268514826,
176,0,176,0,5,354.6142559,354.6142559,354.6142559,[0.37407407407407406],[0.3212962962962963],[1],[0],[0],[1.4731039000034798],['target'],2s,001,2023-09-28_16h59.37.918,visualsearch,2023.1.3,59.923262268514826,
177,0,177,0,10,356.1784303000022,356.1784303000022,356.1784303000022,[0.3175925925925926],[0.42962962962962964],[1],[0],[0],[1.0848207999952137],['target'],2s,001,2023-09-28_16h59.37.918,visualsearch,2023.1.3,59.923262268514826,
178,0,178,0,10,357.33893099999113,357.33893099999113,357.33893099999113,[0.37222222222222223],[0.04722222222222222],[1],[0],[0],[1.1430394000053639],['target'],2s,001,2023-09-28_16h59.37.918,visualsearch,2023.1.3,59.923262268514826,
179,0,179,0,10,358.6149279999954,358.6149279999954,358.6149279999954,[0.019444444444444445],[-0.41574074074074074],[0],[0],[1],[2.4577387000026647],['target'],2s,001,2023-09-28_16h59.37.918,visualsearch,2023.1.3,59.923262268514826,
180,0,180,0,5,361.093306499999,361.093306499999,361.093306499999,[-0.22685185185185186],[0.3814814814814815],[1],[0],[0],[1.660714999990887],['target'],2s,001,2023-09-28_16h59.37.918,visualsearch,2023.1.3,59.923262268514826,
181,0,181,0,10,362.8985801999952,362.8985801999952,362.8985801999952,[-0.49444444444444446],[0.29259259259259257],[1],[0],[0],[2.4020002000033855],['target'],2s,001,2023-09-28_16h59.37.918,visualsearch,2023.1.3,59.923262268514826,
182,0,182,0,10,365.4377645999921,365.4377645999921,365.4377645999921,[-0.12407407407407407],[-0.3074074074074074],[1],[0],[0],[1.9691377999988617],['target'],2s,001,2023-09-28_16h59.37.918,visualsearch,2023.1.3,59.923262268514826,
183,0,183,0,5,367.4574883000023,367.4574883000023,367.4574883000023,[0.23425925925925925],[-0.17685185185185184],[1],[0],[0],[1.5057762000069488],['target'],2s,001,2023-09-28_16h59.37.918,visualsearch,2023.1.3,59.923262268514826,
184,0,184,0,5,369.03743169999507,369.03743169999507,369.03743169999507,[0.13703703703703704],[0.23981481481481481],[1],[0],[0],[1.8391574999986915],['target'],2s,001,2023-09-28_16h59.37.918,visualsearch,2023.1.3,59.923262268514826,
185,0,185,0,5,370.9419860999915,370.9419860999915,370.9419860999915,[0.22314814814814815],[-0.12129629629629629],[1],[0],[0],[1.3955983000050765],['target'],2s,001,2023-09-28_16h59.37.918,visualsearch,2023.1.3,59.923262268514826,
186,0,186,0,5,372.38527509999403,372.38527509999403,372.38527509999403,[0.22037037037037038],[0.2111111111111111],[1],[0],[0],[1.314213000005111],['target'],2s,001,2023-09-28_16h59.37.918,visualsearch,2023.1.3,59.923262268514826,
187,0,187,0,5,373.77850780000153,373.77850780000153,373.77850780000153,[-0.2212962962962963],[-0.1712962962962963],[1],[0],[0],[2.054059000001871],['target'],2s,001,2023-09-28_16h59.37.918,visualsearch,2023.1.3,59.923262268514826,
188,0,188,0,5,375.88321559999895,375.88321559999895,375.88321559999895,[0.13055555555555556],[-0.31851851851851853],[1],[0],[0],[1.4343778000038583],['target'],2s,001,2023-09-28_16h59.37.918,visualsearch,2023.1.3,59.923262268514826,
189,0,189,0,5,377.35424479999347,377.35424479999347,377.35424479999347,[0.30925925925925923],[0.011111111111111112],[1],[0],[0],[1.21394980000332],['target'],2s,001,2023-09-28_16h59.37.918,visualsearch,2023.1.3,59.923262268514826,
190,0,190,0,5,378.6641455999925,378.6641455999925,378.6641455999925,[0.22037037037037038],[-0.2851851851851852],[1],[0],[0],[1.3780079999996815],['target'],2s,001,2023-09-28_16h59.37.918,visualsearch,2023.1.3,59.923262268514826,
191,0,191,0,10,380.10944869999366,380.10944869999366,380.10944869999366,[0.2037037037037037],[-0.21296296296296297],[0],[0],[1],[0.8336693000019295],['target'],2s,001,2023-09-28_16h59.37.918,visualsearch,2023.1.3,59.923262268514826,
192,0,192,0,10,381.0204126000026,381.0204126000026,381.0204126000026,[0.42685185185185187],[0.4648148148148148],[1],[0],[0],[2.2652170000073966],['target'],2s,001,2023-09-28_16h59.37.918,visualsearch,2023.1.3,59.923262268514826,
193,0,193,0,10,383.373271000004,383.373271000004,383.373271000004,[0.1824074074074074],[-0.39444444444444443],[1],[0],[0],[1.7663753000088036],['target'],2s,001,2023-09-28_16h59.37.918,visualsearch,2023.1.3,59.923262268514826,
194,0,194,0,10,385.22094109999307,385.22094109999307,385.22094109999307,[-0.13425925925925927],[-0.12777777777777777],[1],[0],[0],[1.8017098999989685],['target'],2s,001,2023-09-28_16h59.37.918,visualsearch,2023.1.3,59.923262268514826,
195,0,195,0,5,387.04465729999356,387.04465729999356,387.04465729999356,[-0.30648148148148147],[0.06388888888888888],[1],[0],[0],[1.2417003000009572],['target'],2s,001,2023-09-28_16h59.37.918,visualsearch,2023.1.3,59.923262268514826,
196,0,196,0,5,388.3764544000005,388.3764544000005,388.3764544000005,[0.30925925925925923],[-0.23703703703703705],[1],[0],[0],[1.5789065999997547],['target'],2s,001,2023-09-28_16h59.37.918,visualsearch,2023.1.3,59.923262268514826,
197,0,197,0,5,389.9924336999975,389.9924336999975,389.9924336999975,[0.003703703703703704],[-0.08611111111111111],[1],[0],[0],[1.4764244999969378],['target'],2s,001,2023-09-28_16h59.37.918,visualsearch,2023.1.3,59.923262268514826,
198,0,198,0,5,391.51990020000085,391.51990020000085,391.51990020000085,[-0.32685185185185184],[0.32592592592592595],[1],[0],[0],[1.9832476000010502],['target'],2s,001,2023-09-28_16h59.37.918,visualsearch,2023.1.3,59.923262268514826,
199,0,199,0,5,393.59440170000016,393.59440170000016,393.59440170000016,[0.27314814814814814],[0.11481481481481481],[1],[0],[0],[1.5944880000024568],['target'],2s,001,2023-09-28_16h59.37.918,visualsearch,2023.1.3,59.923262268514826,
