trials.thisRepN,trials.thisTrialN,trials.thisN,trials.thisIndex,num_distr,fixation.started,target.started,mouse.started,mouse.x,mouse.y,mouse.leftButton,mouse.midButton,mouse.rightButton,mouse.time,mouse.clicked_name,participant,session,date,expName,psychopyVersion,frameRate,
0,0,0,0,10,265.4504259999958,265.4504259999958,265.4504259999958,[0.17685185185185184],[-0.2324074074074074],[1],[0],[0],[1.4800385999988066],['target'],3r,001,2023-09-28_18h09.35.279,visualsearch,2023.1.3,60.000600001837526,
1,0,1,0,10,266.9972185999941,266.9972185999941,266.9972185999941,[-0.20185185185185187],[-0.20555555555555555],[1],[0],[0],[1.1444500999932643],['target'],3r,001,2023-09-28_18h09.35.279,visualsearch,2023.1.3,60.000600001837526,
2,0,2,0,10,268.2036786999961,268.2036786999961,268.2036786999961,[0.3472222222222222],[0.1037037037037037],[1],[0],[0],[1.000305199995637],['target'],3r,001,2023-09-28_18h09.35.279,visualsearch,2023.1.3,60.000600001837526,
3,0,3,0,10,269.2753914999921,269.2753914999921,269.2753914999921,[-0.4777777777777778],[-0.15185185185185185],[1],[0],[0],[1.2845884999987902],['target'],3r,001,2023-09-28_18h09.35.279,visualsearch,2023.1.3,60.000600001837526,
4,0,4,0,5,270.5891479999991,270.5891479999991,270.5891479999991,[-0.11944444444444445],[-0.058333333333333334],[1],[0],[0],[0.9863333999965107],['target'],3r,001,2023-09-28_18h09.35.279,visualsearch,2023.1.3,60.000600001837526,
5,0,5,0,10,271.64324340000167,271.64324340000167,271.64324340000167,[0.4722222222222222],[-0.43333333333333335],[1],[0],[0],[3.095950199989602],['target'],3r,001,2023-09-28_18h09.35.279,visualsearch,2023.1.3,60.000600001837526,
6,0,6,0,10,274.8075642999902,274.8075642999902,274.8075642999902,[-0.4166666666666667],[-0.1824074074074074],[1],[0],[0],[1.2427587999991374],['target'],3r,001,2023-09-28_18h09.35.279,visualsearch,2023.1.3,60.000600001837526,
7,0,7,0,10,276.11657299999206,276.11657299999206,276.11657299999206,[0.07962962962962963],[0.15925925925925927],[1],[0],[0],[1.0346810999908485],['target'],3r,001,2023-09-28_18h09.35.279,visualsearch,2023.1.3,60.000600001837526,
8,0,8,0,10,277.22626480000326,277.22626480000326,277.22626480000326,[0.30833333333333335],[0.21944444444444444],[1],[0],[0],[1.1682264000119176],['target'],3r,001,2023-09-28_18h09.35.279,visualsearch,2023.1.3,60.000600001837526,
9,0,9,0,5,278.4496073999908,278.4496073999908,278.4496073999908,[-0.17685185185185184],[-0.22685185185185186],[1],[0],[0],[2.4324583999987226],['target'],3r,001,2023-09-28_18h09.35.279,visualsearch,2023.1.3,60.000600001837526,
10,0,10,0,10,280.9434261999995,280.9434261999995,280.9434261999995,[0.026851851851851852],[0.2101851851851852],[1],[0],[0],[1.1126539999968372],['target'],3r,001,2023-09-28_18h09.35.279,visualsearch,2023.1.3,60.000600001837526,
11,0,11,0,10,282.1176737999922,282.1176737999922,282.1176737999922,[-0.025925925925925925],[0.000925925925925926],[1],[0],[0],[3.4000670999957947],['target'],3r,001,2023-09-28_18h09.35.279,visualsearch,2023.1.3,60.000600001837526,
12,0,12,0,5,285.563619499997,285.563619499997,285.563619499997,[0.20925925925925926],[-0.4462962962962963],[1],[0],[0],[2.7041902000055416],['target'],3r,001,2023-09-28_18h09.35.279,visualsearch,2023.1.3,60.000600001837526,
13,0,13,0,10,288.4396982999897,288.4396982999897,288.4396982999897,[0.3472222222222222],[0.21296296296296297],[1],[0],[0],[1.9091706000035629],['target'],3r,001,2023-09-28_18h09.35.279,visualsearch,2023.1.3,60.000600001837526,
14,0,14,0,5,290.3848386999889,290.3848386999889,290.3848386999889,[0.024074074074074074],[0.4074074074074074],[1],[0],[0],[1.4863476999889826],['target'],3r,001,2023-09-28_18h09.35.279,visualsearch,2023.1.3,60.000600001837526,
15,0,15,0,5,291.9759308999928,291.9759308999928,291.9759308999928,[0.42314814814814816],[0.3768518518518518],[1],[0],[0],[1.5801921999955084],['target'],3r,001,2023-09-28_18h09.35.279,visualsearch,2023.1.3,60.000600001837526,
16,0,16,0,10,293.6449896999984,293.6449896999984,293.6449896999984,[0.11851851851851852],[-0.37592592592592594],[1],[0],[0],[1.8539780999999493],['target'],3r,001,2023-09-28_18h09.35.279,visualsearch,2023.1.3,60.000600001837526,
17,0,17,0,5,295.53974419999577,295.53974419999577,295.53974419999577,[0.3296296296296296],[0.13055555555555556],[1],[0],[0],[1.6091980999917723],['target'],3r,001,2023-09-28_18h09.35.279,visualsearch,2023.1.3,60.000600001837526,
18,0,18,0,10,297.2867713000014,297.2867713000014,297.2867713000014,[0.012037037037037037],[0.1037037037037037],[1],[0],[0],[1.440666800001054],['target'],3r,001,2023-09-28_18h09.35.279,visualsearch,2023.1.3,60.000600001837526,
19,0,19,0,10,298.8141869999963,298.8141869999963,298.8141869999963,[0.39537037037037037],[-0.42592592592592593],[1],[0],[0],[1.9606862999935402],['target'],3r,001,2023-09-28_18h09.35.279,visualsearch,2023.1.3,60.000600001837526,
20,0,20,0,5,300.8106414999929,300.8106414999929,300.8106414999929,[-0.26666666666666666],[0.4],[1],[0],[0],[1.5450424000009662],['target'],3r,001,2023-09-28_18h09.35.279,visualsearch,2023.1.3,60.000600001837526,
21,0,21,0,10,302.42476680000254,302.42476680000254,302.42476680000254,[0.024074074074074074],[0.4583333333333333],[1],[0],[0],[1.2838237999967532],['target'],3r,001,2023-09-28_18h09.35.279,visualsearch,2023.1.3,60.000600001837526,
22,0,22,0,5,303.7554980999994,303.7554980999994,303.7554980999994,[0.21666666666666667],[-0.3638888888888889],[1],[0],[0],[1.6974210000043968],['target'],3r,001,2023-09-28_18h09.35.279,visualsearch,2023.1.3,60.000600001837526,
23,0,23,0,10,305.54316099999414,305.54316099999414,305.54316099999414,[0.2564814814814815],[-0.4064814814814815],[1],[0],[0],[1.6942188999964856],['target'],3r,001,2023-09-28_18h09.35.279,visualsearch,2023.1.3,60.000600001837526,
24,0,24,0,10,307.29948960000183,307.29948960000183,307.29948960000183,[0.3111111111111111],[-0.29444444444444445],[1],[0],[0],[1.7262389000097755],['target'],3r,001,2023-09-28_18h09.35.279,visualsearch,2023.1.3,60.000600001837526,
25,0,25,0,5,309.0743364999944,309.0743364999944,309.0743364999944,[0.0824074074074074],[-0.43796296296296294],[1],[0],[0],[1.8076742999983253],['target'],3r,001,2023-09-28_18h09.35.279,visualsearch,2023.1.3,60.000600001837526,
26,0,26,0,10,310.9683434999897,310.9683434999897,310.9683434999897,[-0.058333333333333334],[-0.09907407407407408],[1],[0],[0],[1.7686149000073783],['target'],3r,001,2023-09-28_18h09.35.279,visualsearch,2023.1.3,60.000600001837526,
27,0,27,0,10,312.8170459999965,312.8170459999965,312.8170459999965,[0.3425925925925926],[0.11388888888888889],[1],[0],[0],[2.0031975000019884],['target'],3r,001,2023-09-28_18h09.35.279,visualsearch,2023.1.3,60.000600001837526,
28,0,28,0,5,314.8522981999995,314.8522981999995,314.8522981999995,[0.10555555555555556],[-0.3768518518518518],[1],[0],[0],[1.9251904000120703],['target'],3r,001,2023-09-28_18h09.35.279,visualsearch,2023.1.3,60.000600001837526,
29,0,29,0,5,316.8300845999911,316.8300845999911,316.8300845999911,[0.4305555555555556],[0.14537037037037037],[1],[0],[0],[1.758648799994262],['target'],3r,001,2023-09-28_18h09.35.279,visualsearch,2023.1.3,60.000600001837526,
30,0,30,0,5,318.63983629998984,318.63983629998984,318.63983629998984,[0.4148148148148148],[0.43333333333333335],[1],[0],[0],[1.4386942999990424],['target'],3r,001,2023-09-28_18h09.35.279,visualsearch,2023.1.3,60.000600001837526,
31,0,31,0,10,320.1660217000026,320.1660217000026,320.1660217000026,[-0.3888888888888889],[0.44907407407407407],[1],[0],[0],[2.903715699998429],['target'],3r,001,2023-09-28_18h09.35.279,visualsearch,2023.1.3,60.000600001837526,
32,0,32,0,10,323.23141999999643,323.23141999999643,323.23141999999643,[-0.2388888888888889],[-0.4],[1],[0],[0],[1.790665300010005],['target'],3r,001,2023-09-28_18h09.35.279,visualsearch,2023.1.3,60.000600001837526,
33,0,33,0,10,325.0630036999937,325.0630036999937,325.0630036999937,[0.27314814814814814],[-0.19722222222222222],[1],[0],[0],[2.2580275000073016],['target'],3r,001,2023-09-28_18h09.35.279,visualsearch,2023.1.3,60.000600001837526,
34,0,34,0,5,327.3673440999992,327.3673440999992,327.3673440999992,[-0.08148148148148149],[0.18888888888888888],[1],[0],[0],[1.7582891999918502],['target'],3r,001,2023-09-28_18h09.35.279,visualsearch,2023.1.3,60.000600001837526,
35,0,35,0,5,329.1711481999955,329.1711481999955,329.1711481999955,[-0.16111111111111112],[-0.10462962962962963],[1],[0],[0],[1.242964100005338],['target'],3r,001,2023-09-28_18h09.35.279,visualsearch,2023.1.3,60.000600001837526,
36,0,36,0,5,330.46969250000257,330.46969250000257,330.46969250000257,[0.2175925925925926],[0.362962962962963],[1],[0],[0],[1.6082886999938637],['target'],3r,001,2023-09-28_18h09.35.279,visualsearch,2023.1.3,60.000600001837526,
37,0,37,0,10,332.196354300002,332.196354300002,332.196354300002,[0.2675925925925926],[-0.13425925925925927],[1],[0],[0],[1.6640305999899283],['target'],3r,001,2023-09-28_18h09.35.279,visualsearch,2023.1.3,60.000600001837526,
38,0,38,0,5,333.88810569999623,333.88810569999623,333.88810569999623,[0.3768518518518518],[0.3685185185185185],[1],[0],[0],[1.6331258999998681],['target'],3r,001,2023-09-28_18h09.35.279,visualsearch,2023.1.3,60.000600001837526,
39,0,39,0,10,335.5942028999998,335.5942028999998,335.5942028999998,[-0.2675925925925926],[-0.175],[1],[0],[0],[1.8214680000091903],['target'],3r,001,2023-09-28_18h09.35.279,visualsearch,2023.1.3,60.000600001837526,
40,0,40,0,5,337.4563635999948,337.4563635999948,337.4563635999948,[0.2351851851851852],[-0.125],[1],[0],[0],[1.7715239000099245],['target'],3r,001,2023-09-28_18h09.35.279,visualsearch,2023.1.3,60.000600001837526,
41,0,41,0,5,339.28412209999806,339.28412209999806,339.28412209999806,[-0.32037037037037036],[0.10462962962962963],[1],[0],[0],[1.4150072999909753],['target'],3r,001,2023-09-28_18h09.35.279,visualsearch,2023.1.3,60.000600001837526,
42,0,42,0,10,340.7995693999983,340.7995693999983,340.7995693999983,[-0.36944444444444446],[-0.10555555555555556],[1],[0],[0],[1.213971599994693],['target'],3r,001,2023-09-28_18h09.35.279,visualsearch,2023.1.3,60.000600001837526,
43,0,43,0,10,342.0791363999888,342.0791363999888,342.0791363999888,[-0.2351851851851852],[0.41388888888888886],[1],[0],[0],[1.5317548000020906],['target'],3r,001,2023-09-28_18h09.35.279,visualsearch,2023.1.3,60.000600001837526,
44,0,44,0,10,343.69041379999544,343.69041379999544,343.69041379999544,[-0.46111111111111114],[-0.34444444444444444],[1],[0],[0],[2.1790110000001732],['target'],3r,001,2023-09-28_18h09.35.279,visualsearch,2023.1.3,60.000600001837526,
45,0,45,0,10,345.99905020000006,345.99905020000006,345.99905020000006,[-0.20185185185185187],[0.4861111111111111],[1],[0],[0],[5.098884900013218],[],3r,001,2023-09-28_18h09.35.279,visualsearch,2023.1.3,60.000600001837526,
46,0,46,0,5,351.1125114000024,351.1125114000024,351.1125114000024,[0.37037037037037035],[0.03148148148148148],[1],[0],[0],[1.4705020999972476],['target'],3r,001,2023-09-28_18h09.35.279,visualsearch,2023.1.3,60.000600001837526,
47,0,47,0,10,352.7318446999998,352.7318446999998,352.7318446999998,[0.4861111111111111],[-0.45555555555555555],[1],[0],[0],[2.1632448000018485],['target'],3r,001,2023-09-28_18h09.35.279,visualsearch,2023.1.3,60.000600001837526,
48,0,48,0,5,354.93065149999165,354.93065149999165,354.93065149999165,[0.11851851851851852],[-0.3990740740740741],[1],[0],[0],[1.8414401000045473],['target'],3r,001,2023-09-28_18h09.35.279,visualsearch,2023.1.3,60.000600001837526,
49,0,49,0,5,356.81385130000126,356.81385130000126,356.81385130000126,[0.2462962962962963],[0.25],[1],[0],[0],[1.5762573999963934],['target'],3r,001,2023-09-28_18h09.35.279,visualsearch,2023.1.3,60.000600001837526,
50,0,50,0,10,358.4697759999981,358.4697759999981,358.4697759999981,[0.48333333333333334],[0.38981481481481484],[1],[0],[0],[1.8894617000041762],['target'],3r,001,2023-09-28_18h09.35.279,visualsearch,2023.1.3,60.000600001837526,
51,0,51,0,5,360.41917999999714,360.41917999999714,360.41917999999714,[0.1398148148148148],[0.43796296296296294],[1],[0],[0],[1.518894900000305],['target'],3r,001,2023-09-28_18h09.35.279,visualsearch,2023.1.3,60.000600001837526,
52,0,52,0,5,362.0072444999969,362.0072444999969,362.0072444999969,[0.10185185185185185],[0.1787037037037037],[1],[0],[0],[1.3763208000018494],['target'],3r,001,2023-09-28_18h09.35.279,visualsearch,2023.1.3,60.000600001837526,
53,0,53,0,5,363.4216766999889,363.4216766999889,363.4216766999889,[-0.45555555555555555],[0.22592592592592592],[1],[0],[0],[1.5410842999990564],['target'],3r,001,2023-09-28_18h09.35.279,visualsearch,2023.1.3,60.000600001837526,
54,0,54,0,5,365.0099881999922,365.0099881999922,365.0099881999922,[0.2638888888888889],[-0.19166666666666668],[1],[0],[0],[2.074516599997878],['target'],3r,001,2023-09-28_18h09.35.279,visualsearch,2023.1.3,60.000600001837526,
55,0,55,0,5,367.13327639999625,367.13327639999625,367.13327639999625,[-0.007407407407407408],[0.04537037037037037],[1],[0],[0],[1.7690641000081087],['target'],3r,001,2023-09-28_18h09.35.279,visualsearch,2023.1.3,60.000600001837526,
56,0,56,0,5,368.96146690000023,368.96146690000023,368.96146690000023,[-0.12777777777777777],[0.1388888888888889],[1],[0],[0],[1.5646533999970416],['target'],3r,001,2023-09-28_18h09.35.279,visualsearch,2023.1.3,60.000600001837526,
57,0,57,0,5,370.5955102000007,370.5955102000007,370.5955102000007,[0.01574074074074074],[-0.3287037037037037],[1],[0],[0],[1.9870786999963457],['target'],3r,001,2023-09-28_18h09.35.279,visualsearch,2023.1.3,60.000600001837526,
58,0,58,0,10,372.74501990000135,372.74501990000135,372.74501990000135,[-0.30092592592592593],[-0.42962962962962964],[1],[0],[0],[2.0345310999982757],['target'],3r,001,2023-09-28_18h09.35.279,visualsearch,2023.1.3,60.000600001837526,
59,0,59,0,5,374.7852203999937,374.7852203999937,374.7852203999937,[0.31203703703703706],[0.26851851851851855],[1],[0],[0],[1.7371566999936476],['target'],3r,001,2023-09-28_18h09.35.279,visualsearch,2023.1.3,60.000600001837526,
60,0,60,0,5,376.58023819999653,376.58023819999653,376.58023819999653,[-0.03981481481481482],[0.24074074074074073],[1],[0],[0],[1.6486872999957995],['target'],3r,001,2023-09-28_18h09.35.279,visualsearch,2023.1.3,60.000600001837526,
61,0,61,0,5,378.30889529999695,378.30889529999695,378.30889529999695,[-0.09722222222222222],[0.0712962962962963],[1],[0],[0],[2.057124000013573],['target'],3r,001,2023-09-28_18h09.35.279,visualsearch,2023.1.3,60.000600001837526,
62,0,62,0,5,380.4089452999906,380.4089452999906,380.4089452999906,[0.34814814814814815],[-0.22685185185185186],[1],[0],[0],[1.5660724000044866],['target'],3r,001,2023-09-28_18h09.35.279,visualsearch,2023.1.3,60.000600001837526,
63,0,63,0,5,382.0577045999962,382.0577045999962,382.0577045999962,[-0.075],[0.34444444444444444],[1],[0],[0],[1.9688965999957873],['target'],3r,001,2023-09-28_18h09.35.279,visualsearch,2023.1.3,60.000600001837526,
64,0,64,0,10,384.1379302999994,384.1379302999994,384.1379302999994,[-0.17777777777777778],[-0.4388888888888889],[1],[0],[0],[2.235570699995151],['target'],3r,001,2023-09-28_18h09.35.279,visualsearch,2023.1.3,60.000600001837526,
65,0,65,0,10,386.4219860000012,386.4219860000012,386.4219860000012,[-0.262037037037037],[0.13425925925925927],[1],[0],[0],[1.3364915999991354],['target'],3r,001,2023-09-28_18h09.35.279,visualsearch,2023.1.3,60.000600001837526,
66,0,66,0,10,387.8247657000029,387.8247657000029,387.8247657000029,[-0.29907407407407405],[-0.12037037037037036],[1],[0],[0],[1.2705806000012672],['target'],3r,001,2023-09-28_18h09.35.279,visualsearch,2023.1.3,60.000600001837526,
67,0,67,0,10,389.14583649999986,389.14583649999986,389.14583649999986,[0.10925925925925926],[0.27685185185185185],[1],[0],[0],[1.593393399991328],['target'],3r,001,2023-09-28_18h09.35.279,visualsearch,2023.1.3,60.000600001837526,
68,0,68,0,5,390.7885491999914,390.7885491999914,390.7885491999914,[-0.02962962962962963],[0.49074074074074076],[1],[0],[0],[2.323240400000941],['target'],3r,001,2023-09-28_18h09.35.279,visualsearch,2023.1.3,60.000600001837526,
69,0,69,0,10,393.18276779999724,393.18276779999724,393.18276779999724,[-0.487962962962963],[0.03333333333333333],[1],[0],[0],[1.39488620001066],['target'],3r,001,2023-09-28_18h09.35.279,visualsearch,2023.1.3,60.000600001837526,
70,0,70,0,10,394.6384787999996,394.6384787999996,394.6384787999996,[0.016666666666666666],[0.10555555555555556],[1],[0],[0],[1.6571698999905493],['target'],3r,001,2023-09-28_18h09.35.279,visualsearch,2023.1.3,60.000600001837526,
71,0,71,0,10,396.35999929999525,396.35999929999525,396.35999929999525,[-0.2074074074074074],[0.004629629629629629],[1],[0],[0],[1.3513412999891443],['target'],3r,001,2023-09-28_18h09.35.279,visualsearch,2023.1.3,60.000600001837526,
72,0,72,0,5,397.79794779999065,397.79794779999065,397.79794779999065,[-0.1712962962962963],[0.18611111111111112],[1],[0],[0],[1.3919958000042243],['target'],3r,001,2023-09-28_18h09.35.279,visualsearch,2023.1.3,60.000600001837526,
73,0,73,0,10,399.2691430999985,399.2691430999985,399.2691430999985,[-0.08796296296296297],[-0.014814814814814815],[1],[0],[0],[1.2261693000036757],['target'],3r,001,2023-09-28_18h09.35.279,visualsearch,2023.1.3,60.000600001837526,
74,0,74,0,10,400.5721973999898,400.5721973999898,400.5721973999898,[-0.1685185185185185],[-0.06759259259259259],[1],[0],[0],[1.7228583999967668],['target'],3r,001,2023-09-28_18h09.35.279,visualsearch,2023.1.3,60.000600001837526,
75,0,75,0,5,402.31139209998946,402.31139209998946,402.31139209998946,[0.45555555555555555],[-0.21203703703703702],[1],[0],[0],[1.5590926000004401],['target'],3r,001,2023-09-28_18h09.35.279,visualsearch,2023.1.3,60.000600001837526,
76,0,76,0,10,403.96080839999195,403.96080839999195,403.96080839999195,[0.08148148148148149],[0.0712962962962963],[1],[0],[0],[1.2951625999994576],['target'],3r,001,2023-09-28_18h09.35.279,visualsearch,2023.1.3,60.000600001837526,
77,0,77,0,10,405.33326519999537,405.33326519999537,405.33326519999537,[-0.19537037037037036],[-0.001851851851851852],[1],[0],[0],[1.2266969000047538],['target'],3r,001,2023-09-28_18h09.35.279,visualsearch,2023.1.3,60.000600001837526,
78,0,78,0,10,406.64880129999074,406.64880129999074,406.64880129999074,[-0.1],[-0.1925925925925926],[1],[0],[0],[2.5616693000047235],['target'],3r,001,2023-09-28_18h09.35.279,visualsearch,2023.1.3,60.000600001837526,
79,0,79,0,5,409.25118379999185,409.25118379999185,409.25118379999185,[0.05185185185185185],[0.037037037037037035],[1],[0],[0],[2.4239589999924647],['target'],3r,001,2023-09-28_18h09.35.279,visualsearch,2023.1.3,60.000600001837526,
80,0,80,0,5,411.7548323999945,411.7548323999945,411.7548323999945,[-0.09259259259259259],[-0.3296296296296296],[1],[0],[0],[2.0656373999954667],['target'],3r,001,2023-09-28_18h09.35.279,visualsearch,2023.1.3,60.000600001837526,
81,0,81,0,10,413.93081099999836,413.93081099999836,413.93081099999836,[0.3101851851851852],[0.30462962962962964],[1],[0],[0],[2.0510253999964334],['target'],3r,001,2023-09-28_18h09.35.279,visualsearch,2023.1.3,60.000600001837526,
82,0,82,0,10,416.0632403999916,416.0632403999916,416.0632403999916,[0.35833333333333334],[0.04722222222222222],[1],[0],[0],[1.6389640999987023],['target'],3r,001,2023-09-28_18h09.35.279,visualsearch,2023.1.3,60.000600001837526,
83,0,83,0,10,417.81856329999573,417.81856329999573,417.81856329999573,[0.31851851851851853],[0.09814814814814815],[1],[0],[0],[1.4275744000042323],['target'],3r,001,2023-09-28_18h09.35.279,visualsearch,2023.1.3,60.000600001837526,
84,0,84,0,10,419.3029408000002,419.3029408000002,419.3029408000002,[0.37592592592592594],[0.007407407407407408],[1],[0],[0],[2.3758813999884296],['target'],3r,001,2023-09-28_18h09.35.279,visualsearch,2023.1.3,60.000600001837526,
85,0,85,0,5,421.7124523999955,421.7124523999955,421.7124523999955,[0.2175925925925926],[-0.18518518518518517],[1],[0],[0],[2.4130981999915093],['target'],3r,001,2023-09-28_18h09.35.279,visualsearch,2023.1.3,60.000600001837526,
86,0,86,0,5,424.1847815999936,424.1847815999936,424.1847815999936,[0.03333333333333333],[-0.1527777777777778],[1],[0],[0],[2.754774799992447],['target'],3r,001,2023-09-28_18h09.35.279,visualsearch,2023.1.3,60.000600001837526,
87,0,87,0,10,427.0802623999916,427.0802623999916,427.0802623999916,[0.1259259259259259],[-0.4185185185185185],[1],[0],[0],[2.5528410999977496],['target'],3r,001,2023-09-28_18h09.35.279,visualsearch,2023.1.3,60.000600001837526,
88,0,88,0,5,429.6589365999971,429.6589365999971,429.6589365999971,[0.4398148148148148],[0.33425925925925926],[1],[0],[0],[1.6217686000018148],['target'],3r,001,2023-09-28_18h09.35.279,visualsearch,2023.1.3,60.000600001837526,
89,0,89,0,10,431.35880319999706,431.35880319999706,431.35880319999706,[0.1712962962962963],[0.18425925925925926],[1],[0],[0],[1.6299478000000818],['target'],3r,001,2023-09-28_18h09.35.279,visualsearch,2023.1.3,60.000600001837526,
90,0,90,0,10,433.08736799999315,433.08736799999315,433.08736799999315,[0.1361111111111111],[0.18796296296296297],[1],[0],[0],[1.0895443999907002],['target'],3r,001,2023-09-28_18h09.35.279,visualsearch,2023.1.3,60.000600001837526,
91,0,91,0,5,434.2023762999888,434.2023762999888,434.2023762999888,[-0.15555555555555556],[-0.1537037037037037],[1],[0],[0],[1.3254507000092417],['target'],3r,001,2023-09-28_18h09.35.279,visualsearch,2023.1.3,60.000600001837526,
92,0,92,0,5,435.58617629999935,435.58617629999935,435.58617629999935,[0.028703703703703703],[-0.27685185185185185],[1],[0],[0],[1.419604700000491],['target'],3r,001,2023-09-28_18h09.35.279,visualsearch,2023.1.3,60.000600001837526,
93,0,93,0,5,437.0717159999913,437.0717159999913,437.0717159999913,[-0.18425925925925926],[-0.19537037037037036],[1],[0],[0],[1.2790558999986388],['target'],3r,001,2023-09-28_18h09.35.279,visualsearch,2023.1.3,60.000600001837526,
94,0,94,0,5,438.4058021999954,438.4058021999954,438.4058021999954,[-0.003703703703703704],[0.30277777777777776],[1],[0],[0],[1.5182446999970125],['target'],3r,001,2023-09-28_18h09.35.279,visualsearch,2023.1.3,60.000600001837526,
95,0,95,0,5,439.99456539998937,439.99456539998937,439.99456539998937,[0.09537037037037037],[0.43148148148148147],[1],[0],[0],[1.314219599997159],['target'],3r,001,2023-09-28_18h09.35.279,visualsearch,2023.1.3,60.000600001837526,
96,0,96,0,5,441.3791322999896,441.3791322999896,441.3791322999896,[-0.07037037037037037],[-0.24537037037037038],[1],[0],[0],[1.529018899993389],['target'],3r,001,2023-09-28_18h09.35.279,visualsearch,2023.1.3,60.000600001837526,
97,0,97,0,10,443.05004679999547,443.05004679999547,443.05004679999547,[-0.19074074074074074],[0.43333333333333335],[1],[0],[0],[1.8599020999972709],['target'],3r,001,2023-09-28_18h09.35.279,visualsearch,2023.1.3,60.000600001837526,
98,0,98,0,5,444.9310503000015,444.9310503000015,444.9310503000015,[-0.06018518518518518],[0.2388888888888889],[1],[0],[0],[1.4336618999950588],['target'],3r,001,2023-09-28_18h09.35.279,visualsearch,2023.1.3,60.000600001837526,
99,0,99,0,5,446.41959269999643,446.41959269999643,446.41959269999643,[-0.24814814814814815],[0.03796296296296296],[1],[0],[0],[1.7338788000051863],['target'],3r,001,2023-09-28_18h09.35.279,visualsearch,2023.1.3,60.000600001837526,
100,0,100,0,5,448.2286332999938,448.2286332999938,448.2286332999938,[-0.0787037037037037],[-0.43425925925925923],[1],[0],[0],[2.019700199991348],['target'],3r,001,2023-09-28_18h09.35.279,visualsearch,2023.1.3,60.000600001837526,
101,0,101,0,10,450.31166629999643,450.31166629999643,450.31166629999643,[-0.33796296296296297],[-0.046296296296296294],[1],[0],[0],[3.447690600005444],['target'],3r,001,2023-09-28_18h09.35.279,visualsearch,2023.1.3,60.000600001837526,
102,0,102,0,10,453.8541739999928,453.8541739999928,453.8541739999928,[0.36574074074074076],[0.26666666666666666],[1],[0],[0],[2.897086400000262],['target'],3r,001,2023-09-28_18h09.35.279,visualsearch,2023.1.3,60.000600001837526,
103,0,103,0,10,456.8083503999951,456.8083503999951,456.8083503999951,[-0.4666666666666667],[0.24537037037037038],[1],[0],[0],[1.9193929999892134],['target'],3r,001,2023-09-28_18h09.35.279,visualsearch,2023.1.3,60.000600001837526,
104,0,104,0,10,458.83696919999784,458.83696919999784,458.83696919999784,[-0.001851851851851852],[0.2564814814814815],[1],[0],[0],[1.643651599995792],['target'],3r,001,2023-09-28_18h09.35.279,visualsearch,2023.1.3,60.000600001837526,
105,0,105,0,10,460.56067359998997,460.56067359998997,460.56067359998997,[0.32222222222222224],[-0.06296296296296296],[1],[0],[0],[2.126203699997859],['target'],3r,001,2023-09-28_18h09.35.279,visualsearch,2023.1.3,60.000600001837526,
106,0,106,0,10,462.78379809999024,462.78379809999024,462.78379809999024,[-0.05277777777777778],[-0.25555555555555554],[1],[0],[0],[1.9163251999998465],['target'],3r,001,2023-09-28_18h09.35.279,visualsearch,2023.1.3,60.000600001837526,
107,0,107,0,5,464.72805119999975,464.72805119999975,464.72805119999975,[-0.37962962962962965],[-0.3638888888888889],[1],[0],[0],[1.6503526000014972],['target'],3r,001,2023-09-28_18h09.35.279,visualsearch,2023.1.3,60.000600001837526,
108,0,108,0,10,466.48474369999894,466.48474369999894,466.48474369999894,[-0.03425925925925926],[0.4212962962962963],[1],[0],[0],[1.9487790999992285],['target'],3r,001,2023-09-28_18h09.35.279,visualsearch,2023.1.3,60.000600001837526,
109,0,109,0,10,468.5793318999931,468.5793318999931,468.5793318999931,[0.02962962962962963],[0.3888888888888889],[1],[0],[0],[1.003286899998784],['target'],3r,001,2023-09-28_18h09.35.279,visualsearch,2023.1.3,60.000600001837526,
110,0,110,0,5,469.5810196999955,469.5810196999955,469.5810196999955,[-0.25462962962962965],[0.06018518518518518],[1],[0],[0],[1.4500740999937989],['target'],3r,001,2023-09-28_18h09.35.279,visualsearch,2023.1.3,60.000600001837526,
111,0,111,0,10,471.13557169999694,471.13557169999694,471.13557169999694,[0.012962962962962963],[0.04259259259259259],[1],[0],[0],[1.2009257000026992],['target'],3r,001,2023-09-28_18h09.35.279,visualsearch,2023.1.3,60.000600001837526,
112,0,112,0,5,472.37196639999456,472.37196639999456,472.37196639999456,[-0.31851851851851853],[-0.03888888888888889],[1],[0],[0],[1.196775999997044],['target'],3r,001,2023-09-28_18h09.35.279,visualsearch,2023.1.3,60.000600001837526,
113,0,113,0,5,473.6132299000019,473.6132299000019,473.6132299000019,[-0.041666666666666664],[0.11203703703703703],[1],[0],[0],[1.4110552000056487],['target'],3r,001,2023-09-28_18h09.35.279,visualsearch,2023.1.3,60.000600001837526,
114,0,114,0,5,475.0872323999938,475.0872323999938,475.0872323999938,[-0.2324074074074074],[-0.3962962962962963],[1],[0],[0],[1.6439279000042006],['target'],3r,001,2023-09-28_18h09.35.279,visualsearch,2023.1.3,60.000600001837526,
115,0,115,0,10,476.8136123000004,476.8136123000004,476.8136123000004,[-0.30925925925925923],[-0.017592592592592594],[1],[0],[0],[1.2789833999995608],['target'],3r,001,2023-09-28_18h09.35.279,visualsearch,2023.1.3,60.000600001837526,
116,0,116,0,10,478.1487091000017,478.1487091000017,478.1487091000017,[0.4824074074074074],[0.15555555555555556],[1],[0],[0],[2.440341499997885],['target'],3r,001,2023-09-28_18h09.35.279,visualsearch,2023.1.3,60.000600001837526,
117,0,117,0,5,480.64155119999486,480.64155119999486,480.64155119999486,[0.0712962962962963],[-0.25092592592592594],[1],[0],[0],[1.6387500999990152],['target'],3r,001,2023-09-28_18h09.35.279,visualsearch,2023.1.3,60.000600001837526,
118,0,118,0,10,482.3661839999986,482.3661839999986,482.3661839999986,[0.2638888888888889],[-0.1925925925925926],[1],[0],[0],[1.5167128000030061],['target'],3r,001,2023-09-28_18h09.35.279,visualsearch,2023.1.3,60.000600001837526,
119,0,119,0,10,483.96890859999985,483.96890859999985,483.96890859999985,[-0.022222222222222223],[-0.11481481481481481],[1],[0],[0],[1.4980068000004394],['target'],3r,001,2023-09-28_18h09.35.279,visualsearch,2023.1.3,60.000600001837526,
120,0,120,0,10,485.54244910000125,485.54244910000125,485.54244910000125,[-0.1962962962962963],[-0.39537037037037037],[1],[0],[0],[1.419909700009157],['target'],3r,001,2023-09-28_18h09.35.279,visualsearch,2023.1.3,60.000600001837526,
121,0,121,0,5,487.0145061999938,487.0145061999938,487.0145061999938,[-0.3527777777777778],[-0.21851851851851853],[1],[0],[0],[1.423762499995064],['target'],3r,001,2023-09-28_18h09.35.279,visualsearch,2023.1.3,60.000600001837526,
122,0,122,0,10,488.5915257000015,488.5915257000015,488.5915257000015,[-0.16018518518518518],[-0.049074074074074076],[1],[0],[0],[1.4275679999991553],['target'],3r,001,2023-09-28_18h09.35.279,visualsearch,2023.1.3,60.000600001837526,
123,0,123,0,10,490.07801440000185,490.07801440000185,490.07801440000185,[0.05740740740740741],[0.23981481481481481],[1],[0],[0],[1.4853845000034198],['target'],3r,001,2023-09-28_18h09.35.279,visualsearch,2023.1.3,60.000600001837526,
124,0,124,0,10,491.65323359999456,491.65323359999456,491.65323359999456,[-0.4064814814814815],[0.1824074074074074],[1],[0],[0],[1.5146543000009842],['target'],3r,001,2023-09-28_18h09.35.279,visualsearch,2023.1.3,60.000600001837526,
125,0,125,0,5,493.2344846999913,493.2344846999913,493.2344846999913,[0.04814814814814815],[0.3648148148148148],[1],[0],[0],[1.8451651999930618],['target'],3r,001,2023-09-28_18h09.35.279,visualsearch,2023.1.3,60.000600001837526,
126,0,126,0,5,495.12663699999393,495.12663699999393,495.12663699999393,[-0.4009259259259259],[0.412962962962963],[1],[0],[0],[3.329584099992644],['target'],3r,001,2023-09-28_18h09.35.279,visualsearch,2023.1.3,60.000600001837526,
127,0,127,0,10,498.5191274999961,498.5191274999961,498.5191274999961,[-0.25277777777777777],[-0.4351851851851852],[1],[0],[0],[1.680844899994554],['target'],3r,001,2023-09-28_18h09.35.279,visualsearch,2023.1.3,60.000600001837526,
128,0,128,0,5,500.2582579000009,500.2582579000009,500.2582579000009,[-0.0712962962962963],[-0.43796296296296294],[1],[0],[0],[1.6332815999921877],['target'],3r,001,2023-09-28_18h09.35.279,visualsearch,2023.1.3,60.000600001837526,
129,0,129,0,5,501.9338426000031,501.9338426000031,501.9338426000031,[-0.4537037037037037],[-0.24814814814814815],[1],[0],[0],[1.342248999993899],['target'],3r,001,2023-09-28_18h09.35.279,visualsearch,2023.1.3,60.000600001837526,
130,0,130,0,10,503.3723394999979,503.3723394999979,503.3723394999979,[-0.4083333333333333],[-0.05555555555555555],[1],[0],[0],[1.1914850000030128],['target'],3r,001,2023-09-28_18h09.35.279,visualsearch,2023.1.3,60.000600001837526,
131,0,131,0,5,504.58631179999793,504.58631179999793,504.58631179999793,[-0.12962962962962962],[-0.24814814814814815],[1],[0],[0],[1.4939731000049505],['target'],3r,001,2023-09-28_18h09.35.279,visualsearch,2023.1.3,60.000600001837526,
132,0,132,0,10,506.1789898999996,506.1789898999996,506.1789898999996,[0.18425925925925926],[-0.1787037037037037],[1],[0],[0],[1.8083155999920564],['target'],3r,001,2023-09-28_18h09.35.279,visualsearch,2023.1.3,60.000600001837526,
133,0,133,0,10,508.08977120000054,508.08977120000054,508.08977120000054,[0.04351851851851852],[0.16203703703703703],[1],[0],[0],[2.0549351000081515],['target'],3r,001,2023-09-28_18h09.35.279,visualsearch,2023.1.3,60.000600001837526,
134,0,134,0,5,510.1912808999914,510.1912808999914,510.1912808999914,[-0.32222222222222224],[0.03333333333333333],[1],[0],[0],[1.371718399997917],['target'],3r,001,2023-09-28_18h09.35.279,visualsearch,2023.1.3,60.000600001837526,
135,0,135,0,10,511.6504239999922,511.6504239999922,511.6504239999922,[-0.032407407407407406],[-0.046296296296296294],[1],[0],[0],[1.3892675999959465],['target'],3r,001,2023-09-28_18h09.35.279,visualsearch,2023.1.3,60.000600001837526,
136,0,136,0,5,513.0896367999958,513.0896367999958,513.0896367999958,[-0.5027777777777778],[0.32222222222222224],[1],[0],[0],[1.4700570999993943],['target'],3r,001,2023-09-28_18h09.35.279,visualsearch,2023.1.3,60.000600001837526,
137,0,137,0,5,514.624081899994,514.624081899994,514.624081899994,[-0.38333333333333336],[0.30925925925925923],[1],[0],[0],[1.0830838999972912],['target'],3r,001,2023-09-28_18h09.35.279,visualsearch,2023.1.3,60.000600001837526,
138,0,138,0,10,515.790307999996,515.790307999996,515.790307999996,[0.1175925925925926],[0.40925925925925927],[1],[0],[0],[1.4002927999972599],['target'],3r,001,2023-09-28_18h09.35.279,visualsearch,2023.1.3,60.000600001837526,
139,0,139,0,5,517.234871099994,517.234871099994,517.234871099994,[-0.262037037037037],[-0.42314814814814816],[1],[0],[0],[1.8039069999940693],['target'],3r,001,2023-09-28_18h09.35.279,visualsearch,2023.1.3,60.000600001837526,
140,0,140,0,5,519.082348099997,519.082348099997,519.082348099997,[-0.462037037037037],[0.23055555555555557],[1],[0],[0],[1.1038906000030693],['target'],3r,001,2023-09-28_18h09.35.279,visualsearch,2023.1.3,60.000600001837526,
141,0,141,0,5,520.2438956999977,520.2438956999977,520.2438956999977,[-0.275],[-0.21203703703703702],[1],[0],[0],[1.4313631999975769],['target'],3r,001,2023-09-28_18h09.35.279,visualsearch,2023.1.3,60.000600001837526,
142,0,142,0,5,521.7165916999948,521.7165916999948,521.7165916999948,[-0.08796296296296297],[-0.2518518518518518],[1],[0],[0],[1.3878498999984004],['target'],3r,001,2023-09-28_18h09.35.279,visualsearch,2023.1.3,60.000600001837526,
143,0,143,0,10,523.2312762999936,523.2312762999936,523.2312762999936,[0.23425925925925925],[-0.4101851851851852],[1],[0],[0],[3.767808499993407],['target'],3r,001,2023-09-28_18h09.35.279,visualsearch,2023.1.3,60.000600001837526,
144,0,144,0,5,527.0592515999888,527.0592515999888,527.0592515999888,[-0.28425925925925927],[-0.4203703703703704],[1],[0],[0],[1.6308083000039915],['target'],3r,001,2023-09-28_18h09.35.279,visualsearch,2023.1.3,60.000600001837526,
145,0,145,0,5,528.7329662999982,528.7329662999982,528.7329662999982,[-0.18425925925925926],[-0.47314814814814815],[1],[0],[0],[2.792632999990019],['target'],3r,001,2023-09-28_18h09.35.279,visualsearch,2023.1.3,60.000600001837526,
146,0,146,0,5,531.5709324999916,531.5709324999916,531.5709324999916,[-0.3416666666666667],[0.07962962962962963],[1],[0],[0],[1.608270500000799],['target'],3r,001,2023-09-28_18h09.35.279,visualsearch,2023.1.3,60.000600001837526,
147,0,147,0,5,533.2769777999929,533.2769777999929,533.2769777999929,[0.17592592592592593],[0.42592592592592593],[1],[0],[0],[1.9912664000003133],['target'],3r,001,2023-09-28_18h09.35.279,visualsearch,2023.1.3,60.000600001837526,
148,0,148,0,5,535.3172434000007,535.3172434000007,535.3172434000007,[-0.24537037037037038],[-0.2462962962962963],[1],[0],[0],[1.6962455999891972],['target'],3r,001,2023-09-28_18h09.35.279,visualsearch,2023.1.3,60.000600001837526,
149,0,149,0,5,537.0661881999986,537.0661881999986,537.0661881999986,[-0.1361111111111111],[0.48333333333333334],[1],[0],[0],[2.6766646999894874],['target'],3r,001,2023-09-28_18h09.35.279,visualsearch,2023.1.3,60.000600001837526,
150,0,150,0,10,539.8276442999922,539.8276442999922,539.8276442999922,[0.12037037037037036],[0.3925925925925926],[1],[0],[0],[2.269352400006028],['target'],3r,001,2023-09-28_18h09.35.279,visualsearch,2023.1.3,60.000600001837526,
151,0,151,0,10,542.1842495000019,542.1842495000019,542.1842495000019,[0.325],[0.4027777777777778],[1],[0],[0],[1.649887099993066],['target'],3r,001,2023-09-28_18h09.35.279,visualsearch,2023.1.3,60.000600001837526,
152,0,152,0,10,543.9160066999902,543.9160066999902,543.9160066999902,[0.1685185185185185],[-0.4666666666666667],[1],[0],[0],[1.6143226999993203],['target'],3r,001,2023-09-28_18h09.35.279,visualsearch,2023.1.3,60.000600001837526,
153,0,153,0,10,545.6187561999977,545.6187561999977,545.6187561999977,[0.3435185185185185],[0.1537037037037037],[1],[0],[0],[2.361134500009939],['target'],3r,001,2023-09-28_18h09.35.279,visualsearch,2023.1.3,60.000600001837526,
154,0,154,0,5,548.0665900000022,548.0665900000022,548.0665900000022,[-0.18611111111111112],[-0.3768518518518518],[1],[0],[0],[1.348699399997713],['target'],3r,001,2023-09-28_18h09.35.279,visualsearch,2023.1.3,60.000600001837526,
155,0,155,0,10,549.485866899995,549.485866899995,549.485866899995,[-0.412962962962963],[0.13055555555555556],[1],[0],[0],[3.1815967000002274],['target'],3r,001,2023-09-28_18h09.35.279,visualsearch,2023.1.3,60.000600001837526,
156,0,156,0,5,552.6996746999939,552.6996746999939,552.6996746999939,[0.19814814814814816],[-0.4398148148148148],[1],[0],[0],[2.588535300004878],['target'],3r,001,2023-09-28_18h09.35.279,visualsearch,2023.1.3,60.000600001837526,
157,0,157,0,5,555.356939099991,555.356939099991,555.356939099991,[0.04722222222222222],[-0.4222222222222222],[1],[0],[0],[1.6345131999987643],['target'],3r,001,2023-09-28_18h09.35.279,visualsearch,2023.1.3,60.000600001837526,
158,0,158,0,5,557.0530329999892,557.0530329999892,557.0530329999892,[-0.12407407407407407],[-0.16574074074074074],[1],[0],[0],[1.2832204000005731],['target'],3r,001,2023-09-28_18h09.35.279,visualsearch,2023.1.3,60.000600001837526,
159,0,159,0,10,558.4541562999948,558.4541562999948,558.4541562999948,[-0.38055555555555554],[0.020370370370370372],[1],[0],[0],[1.4792952999996487],['target'],3r,001,2023-09-28_18h09.35.279,visualsearch,2023.1.3,60.000600001837526,
160,0,160,0,5,559.9708622999897,559.9708622999897,559.9708622999897,[-0.058333333333333334],[-0.05555555555555555],[1],[0],[0],[1.288864799993462],['target'],3r,001,2023-09-28_18h09.35.279,visualsearch,2023.1.3,60.000600001837526,
161,0,161,0,5,561.3219590999943,561.3219590999943,561.3219590999943,[0.15555555555555556],[0.31574074074074077],[1],[0],[0],[1.5717341999989003],['target'],3r,001,2023-09-28_18h09.35.279,visualsearch,2023.1.3,60.000600001837526,
162,0,162,0,10,563.0293560999999,563.0293560999999,563.0293560999999,[0.2574074074074074],[-0.11203703703703703],[1],[0],[0],[1.54267529999197],['target'],3r,001,2023-09-28_18h09.35.279,visualsearch,2023.1.3,60.000600001837526,
163,0,163,0,5,564.6153839999897,564.6153839999897,564.6153839999897,[-0.19074074074074074],[-0.31574074074074077],[1],[0],[0],[1.6848425999924075],['target'],3r,001,2023-09-28_18h09.35.279,visualsearch,2023.1.3,60.000600001837526,
164,0,164,0,10,566.3970324999973,566.3970324999973,566.3970324999973,[0.3962962962962963],[0.2953703703703704],[1],[0],[0],[1.7897790999995777],['target'],3r,001,2023-09-28_18h09.35.279,visualsearch,2023.1.3,60.000600001837526,
165,0,165,0,5,568.2315936999948,568.2315936999948,568.2315936999948,[0.1787037037037037],[-0.06944444444444445],[1],[0],[0],[1.513566900001024],['target'],3r,001,2023-09-28_18h09.35.279,visualsearch,2023.1.3,60.000600001837526,
166,0,166,0,10,569.830942200002,569.830942200002,569.830942200002,[0.4027777777777778],[-0.002777777777777778],[1],[0],[0],[2.089767599987681],['target'],3r,001,2023-09-28_18h09.35.279,visualsearch,2023.1.3,60.000600001837526,
167,0,167,0,5,571.990879399993,571.990879399993,571.990879399993,[-0.04814814814814815],[0.2601851851851852],[1],[0],[0],[1.3737218000023859],['target'],3r,001,2023-09-28_18h09.35.279,visualsearch,2023.1.3,60.000600001837526,
168,0,168,0,10,573.4643989999895,573.4643989999895,573.4643989999895,[0.21203703703703702],[-0.12222222222222222],[1],[0],[0],[1.3159797999978764],['target'],3r,001,2023-09-28_18h09.35.279,visualsearch,2023.1.3,60.000600001837526,
169,0,169,0,10,574.8804022999975,574.8804022999975,574.8804022999975,[0.3490740740740741],[-0.2],[1],[0],[0],[1.6901772000128403],['target'],3r,001,2023-09-28_18h09.35.279,visualsearch,2023.1.3,60.000600001837526,
170,0,170,0,5,576.6033353999956,576.6033353999956,576.6033353999956,[-0.010185185185185186],[0.1712962962962963],[1],[0],[0],[1.5867426000040723],['target'],3r,001,2023-09-28_18h09.35.279,visualsearch,2023.1.3,60.000600001837526,
171,0,171,0,10,578.2819586999976,578.2819586999976,578.2819586999976,[-0.3074074074074074],[0.32037037037037036],[1],[0],[0],[2.0921639000007417],['target'],3r,001,2023-09-28_18h09.35.279,visualsearch,2023.1.3,60.000600001837526,
172,0,172,0,5,580.405356599993,580.405356599993,580.405356599993,[0.4148148148148148],[-0.10092592592592593],[1],[0],[0],[1.8394806999858702],['target'],3r,001,2023-09-28_18h09.35.279,visualsearch,2023.1.3,60.000600001837526,
173,0,173,0,5,582.2708678999916,582.2708678999916,582.2708678999916,[0.025],[0.4425925925925926],[1],[0],[0],[1.9046356999897398],['target'],3r,001,2023-09-28_18h09.35.279,visualsearch,2023.1.3,60.000600001837526,
174,0,174,0,5,584.2383252,584.2383252,584.2383252,[-0.000925925925925926],[0.47129629629629627],[1],[0],[0],[2.3811159000033513],['target'],3r,001,2023-09-28_18h09.35.279,visualsearch,2023.1.3,60.000600001837526,
175,0,175,0,5,586.6564638999989,586.6564638999989,586.6564638999989,[0.20462962962962963],[-0.07592592592592592],[1],[0],[0],[1.6599801999982446],['target'],3r,001,2023-09-28_18h09.35.279,visualsearch,2023.1.3,60.000600001837526,
176,0,176,0,10,588.3875767999998,588.3875767999998,588.3875767999998,[0.3675925925925926],[0.45740740740740743],[1],[0],[0],[5.720772100001341],['target'],3r,001,2023-09-28_18h09.35.279,visualsearch,2023.1.3,60.000600001837526,
177,0,177,0,10,594.1995087999967,594.1995087999967,594.1995087999967,[0.3648148148148148],[0.1962962962962963],[1],[0],[0],[2.003215299992007],['target'],3r,001,2023-09-28_18h09.35.279,visualsearch,2023.1.3,60.000600001837526,
178,0,178,0,5,596.2354211999918,596.2354211999918,596.2354211999918,[0.4361111111111111],[0.22314814814814815],[1],[0],[0],[1.2668916000111494],['target'],3r,001,2023-09-28_18h09.35.279,visualsearch,2023.1.3,60.000600001837526,
179,0,179,0,5,597.5529029000027,597.5529029000027,597.5529029000027,[0.3194444444444444],[-0.45185185185185184],[1],[0],[0],[2.228858100002981],['target'],3r,001,2023-09-28_18h09.35.279,visualsearch,2023.1.3,60.000600001837526,
180,0,180,0,5,599.8280010000017,599.8280010000017,599.8280010000017,[-0.012962962962962963],[0.1287037037037037],[1],[0],[0],[1.4880168000090634],['target'],3r,001,2023-09-28_18h09.35.279,visualsearch,2023.1.3,60.000600001837526,
181,0,181,0,10,601.3895882999932,601.3895882999932,601.3895882999932,[0.49074074074074076],[-0.48703703703703705],[1],[0],[0],[2.3149549000081606],['target'],3r,001,2023-09-28_18h09.35.279,visualsearch,2023.1.3,60.000600001837526,
182,0,182,0,5,603.7570188999962,603.7570188999962,603.7570188999962,[-0.016666666666666666],[0.36203703703703705],[1],[0],[0],[2.3308126000047196],['target'],3r,001,2023-09-28_18h09.35.279,visualsearch,2023.1.3,60.000600001837526,
183,0,183,0,10,606.1880593999958,606.1880593999958,606.1880593999958,[-0.3416666666666667],[0.43148148148148147],[1],[0],[0],[3.7493461999983992],['target'],3r,001,2023-09-28_18h09.35.279,visualsearch,2023.1.3,60.000600001837526,
184,0,184,0,10,609.9902112999989,609.9902112999989,609.9902112999989,[-0.09444444444444444],[-0.3],[1],[0],[0],[1.9925274999986868],['target'],3r,001,2023-09-28_18h09.35.279,visualsearch,2023.1.3,60.000600001837526,
185,0,185,0,5,612.049783800001,612.049783800001,612.049783800001,[-0.30833333333333335],[-0.019444444444444445],[1],[0],[0],[2.5739208000013605],['target'],3r,001,2023-09-28_18h09.35.279,visualsearch,2023.1.3,60.000600001837526,
186,0,186,0,5,614.6826288000011,614.6826288000011,614.6826288000011,[-0.040740740740740744],[-0.40185185185185185],[1],[0],[0],[2.090788200002862],['target'],3r,001,2023-09-28_18h09.35.279,visualsearch,2023.1.3,60.000600001837526,
187,0,187,0,10,616.8290766999999,616.8290766999999,616.8290766999999,[0.1685185185185185],[-0.33240740740740743],[1],[0],[0],[1.6817689000017708],['target'],3r,001,2023-09-28_18h09.35.279,visualsearch,2023.1.3,60.000600001837526,
188,0,188,0,5,618.5674317999947,618.5674317999947,618.5674317999947,[0.11666666666666667],[0.31574074074074077],[1],[0],[0],[1.3343039000028512],['target'],3r,001,2023-09-28_18h09.35.279,visualsearch,2023.1.3,60.000600001837526,
189,0,189,0,5,619.9576120999991,619.9576120999991,619.9576120999991,[0.06388888888888888],[0.000925925925925926],[1],[0],[0],[1.277199499993003],['target'],3r,001,2023-09-28_18h09.35.279,visualsearch,2023.1.3,60.000600001837526,
190,0,190,0,10,621.3264020999923,621.3264020999923,621.3264020999923,[0.24722222222222223],[0.06574074074074074],[1],[0],[0],[1.5345872000034433],['target'],3r,001,2023-09-28_18h09.35.279,visualsearch,2023.1.3,60.000600001837526,
191,0,191,0,10,622.9366472999973,622.9366472999973,622.9366472999973,[-0.18611111111111112],[0.12407407407407407],[1],[0],[0],[1.9443872999981977],['target'],3r,001,2023-09-28_18h09.35.279,visualsearch,2023.1.3,60.000600001837526,
192,0,192,0,5,624.8970541000017,624.8970541000017,624.8970541000017,[-0.45740740740740743],[-0.12962962962962962],[1],[0],[0],[2.3754698999982793],['target'],3r,001,2023-09-28_18h09.35.279,visualsearch,2023.1.3,60.000600001837526,
193,0,193,0,10,627.3764758999896,627.3764758999896,627.3764758999896,[-0.3148148148148148],[0.26481481481481484],[1],[0],[0],[1.682264999995823],['target'],3r,001,2023-09-28_18h09.35.279,visualsearch,2023.1.3,60.000600001837526,
194,0,194,0,5,629.1038079999998,629.1038079999998,629.1038079999998,[-0.14166666666666666],[-0.22870370370370371],[1],[0],[0],[1.6951054999954067],['target'],3r,001,2023-09-28_18h09.35.279,visualsearch,2023.1.3,60.000600001837526,
195,0,195,0,5,630.8550298999908,630.8550298999908,630.8550298999908,[0.24074074074074073],[0.1361111111111111],[1],[0],[0],[1.6813958999991883],['target'],3r,001,2023-09-28_18h09.35.279,visualsearch,2023.1.3,60.000600001837526,
196,0,196,0,5,632.6159445999947,632.6159445999947,632.6159445999947,[0.14351851851851852],[0.26851851851851855],[1],[0],[0],[1.3982529999921098],['target'],3r,001,2023-09-28_18h09.35.279,visualsearch,2023.1.3,60.000600001837526,
197,0,197,0,5,634.0807400999911,634.0807400999911,634.0807400999911,[0.24444444444444444],[-0.09259259259259259],[1],[0],[0],[1.1988437000109116],['target'],3r,001,2023-09-28_18h09.35.279,visualsearch,2023.1.3,60.000600001837526,
198,0,198,0,5,635.3312684999983,635.3312684999983,635.3312684999983,[-0.09814814814814815],[0.38425925925925924],[1],[0],[0],[1.5425677000021096],['target'],3r,001,2023-09-28_18h09.35.279,visualsearch,2023.1.3,60.000600001837526,
199,0,199,0,10,636.965850499997,636.965850499997,636.965850499997,[0.46944444444444444],[-0.04351851851851852],[1],[0],[0],[2.443267399998149],['target'],3r,001,2023-09-28_18h09.35.279,visualsearch,2023.1.3,60.000600001837526,
