trials.thisRepN,trials.thisTrialN,trials.thisN,trials.thisIndex,num_distr,fixation.started,target.started,mouse.started,mouse.x,mouse.y,mouse.leftButton,mouse.midButton,mouse.rightButton,mouse.time,mouse.clicked_name,participant,session,date,expName,psychopyVersion,frameRate,
0,0,0,0,5,21.083738000001176,21.083738000001176,21.083738000001176,[0.44814814814814813],[0.005555555555555556],[1],[0],[0],[1.6708577000099467],['target'],4b,001,2023-09-28_18h29.18.466,visualsearch,2023.1.3,59.87704847000457,
1,0,1,0,5,22.769373500006623,22.769373500006623,22.769373500006623,[-0.35185185185185186],[-0.32037037037037036],[1],[0],[0],[1.6123781000060262],['target'],4b,001,2023-09-28_18h29.18.466,visualsearch,2023.1.3,59.87704847000457,
2,0,2,0,10,24.43017680000048,24.43017680000048,24.43017680000048,[0.26481481481481484],[-0.2601851851851852],[1],[0],[0],[1.8397804999985965],['target'],4b,001,2023-09-28_18h29.18.466,visualsearch,2023.1.3,59.87704847000457,
3,0,3,0,10,26.29979910000111,26.29979910000111,26.29979910000111,[-0.44351851851851853],[0.17407407407407408],[1],[0],[0],[1.6665742000041064],['target'],4b,001,2023-09-28_18h29.18.466,visualsearch,2023.1.3,59.87704847000457,
4,0,4,0,5,27.978799800010165,27.978799800010165,27.978799800010165,[-0.2796296296296296],[0.4027777777777778],[1],[0],[0],[1.1991776000068057],['target'],4b,001,2023-09-28_18h29.18.466,visualsearch,2023.1.3,59.87704847000457,
5,0,5,0,5,29.20076870000048,29.20076870000048,29.20076870000048,[-0.15555555555555556],[-0.2712962962962963],[1],[0],[0],[1.362348299997393],['target'],4b,001,2023-09-28_18h29.18.466,visualsearch,2023.1.3,59.87704847000457,
6,0,6,0,5,30.577308400010224,30.577308400010224,30.577308400010224,[0.2388888888888889],[-0.4425925925925926],[1],[0],[0],[1.5165929999930086],['target'],4b,001,2023-09-28_18h29.18.466,visualsearch,2023.1.3,59.87704847000457,
7,0,7,0,5,32.12443060000078,32.12443060000078,32.12443060000078,[0.1648148148148148],[-0.16111111111111112],[1],[0],[0],[1.4889871000050334],['target'],4b,001,2023-09-28_18h29.18.466,visualsearch,2023.1.3,59.87704847000457,
8,0,8,0,10,33.645492200012086,33.645492200012086,33.645492200012086,[0.1685185185185185],[-0.08888888888888889],[1],[0],[0],[0.9866039999906207],['target'],4b,001,2023-09-28_18h29.18.466,visualsearch,2023.1.3,59.87704847000457,
9,0,9,0,5,34.64787900001102,34.64787900001102,34.64787900001102,[-0.028703703703703703],[-0.22037037037037038],[1],[0],[0],[1.6981216999993194],['target'],4b,001,2023-09-28_18h29.18.466,visualsearch,2023.1.3,59.87704847000457,
10,0,10,0,5,36.361789400005364,36.361789400005364,36.361789400005364,[0.1175925925925926],[-0.2361111111111111],[1],[0],[0],[1.6662395000021206],['target'],4b,001,2023-09-28_18h29.18.466,visualsearch,2023.1.3,59.87704847000457,
11,0,11,0,5,38.044367800001055,38.044367800001055,38.044367800001055,[0.1574074074074074],[-0.4148148148148148],[1],[0],[0],[1.881987400003709],[],4b,001,2023-09-28_18h29.18.466,visualsearch,2023.1.3,59.87704847000457,
12,0,12,0,10,39.96024130001024,39.96024130001024,39.96024130001024,[0.12777777777777777],[-0.16111111111111112],[1],[0],[0],[1.8536124999955064],['target'],4b,001,2023-09-28_18h29.18.466,visualsearch,2023.1.3,59.87704847000457,
13,0,13,0,5,41.82784790000005,41.82784790000005,41.82784790000005,[-0.03518518518518519],[0.33425925925925926],[1],[0],[0],[1.447764399999869],['target'],4b,001,2023-09-28_18h29.18.466,visualsearch,2023.1.3,59.87704847000457,
14,0,14,0,5,43.292412499999045,43.292412499999045,43.292412499999045,[-0.4537037037037037],[0.3888888888888889],[1],[0],[0],[1.3153247000009287],['target'],4b,001,2023-09-28_18h29.18.466,visualsearch,2023.1.3,59.87704847000457,
15,0,15,0,5,44.62558750000608,44.62558750000608,44.62558750000608,[-0.007407407407407408],[-0.06574074074074074],[1],[0],[0],[2.5980951999954414],['target'],4b,001,2023-09-28_18h29.18.466,visualsearch,2023.1.3,59.87704847000457,
16,0,16,0,10,47.26966770000581,47.26966770000581,47.26966770000581,[-0.24074074074074073],[0.23425925925925925],[1],[0],[0],[2.9607381999958307],['target'],4b,001,2023-09-28_18h29.18.466,visualsearch,2023.1.3,59.87704847000457,
17,0,17,0,10,50.257213900011266,50.257213900011266,50.257213900011266,[0.41944444444444445],[0.4287037037037037],[1],[0],[0],[5.667503799995757],['target'],4b,001,2023-09-28_18h29.18.466,visualsearch,2023.1.3,59.87704847000457,
18,0,18,0,5,55.937747100004344,55.937747100004344,55.937747100004344,[0.13518518518518519],[0.3175925925925926],[1],[0],[0],[1.765219299995806],['target'],4b,001,2023-09-28_18h29.18.466,visualsearch,2023.1.3,59.87704847000457,
19,0,19,0,10,57.736806600005366,57.736806600005366,57.736806600005366,[0.40555555555555556],[-0.4111111111111111],[1],[0],[0],[2.2372125999972923],['target'],4b,001,2023-09-28_18h29.18.466,visualsearch,2023.1.3,59.87704847000457,
20,0,20,0,5,59.99017150000145,59.99017150000145,59.99017150000145,[0.362962962962963],[0.5],[1],[0],[0],[2.462815800012322],[],4b,001,2023-09-28_18h29.18.466,visualsearch,2023.1.3,59.87704847000457,
21,0,21,0,10,62.487423700004,62.487423700004,62.487423700004,[0.046296296296296294],[0.001851851851851852],[1],[0],[0],[2.2343690999987302],['target'],4b,001,2023-09-28_18h29.18.466,visualsearch,2023.1.3,59.87704847000457,
22,0,22,0,10,64.80714400000579,64.80714400000579,64.80714400000579,[-0.23333333333333334],[-0.3],[1],[0],[0],[2.529424899999867],['target'],4b,001,2023-09-28_18h29.18.466,visualsearch,2023.1.3,59.87704847000457,
23,0,23,0,5,67.36183920000622,67.36183920000622,67.36183920000622,[-0.362962962962963],[0.35185185185185186],[1],[0],[0],[1.262612700011232],['target'],4b,001,2023-09-28_18h29.18.466,visualsearch,2023.1.3,59.87704847000457,
24,0,24,0,10,68.65610020000895,68.65610020000895,68.65610020000895,[0.4185185185185185],[-0.47685185185185186],[1],[0],[0],[3.2340627999947174],['target'],4b,001,2023-09-28_18h29.18.466,visualsearch,2023.1.3,59.87704847000457,
25,0,25,0,10,71.9179950000107,71.9179950000107,71.9179950000107,[-0.17592592592592593],[-0.012037037037037037],[1],[0],[0],[1.802343599993037],['target'],4b,001,2023-09-28_18h29.18.466,visualsearch,2023.1.3,59.87704847000457,
26,0,26,0,10,73.75081530000898,73.75081530000898,73.75081530000898,[-0.48055555555555557],[0.4388888888888889],[1],[0],[0],[3.484429900010582],[],4b,001,2023-09-28_18h29.18.466,visualsearch,2023.1.3,59.87704847000457,
27,0,27,0,5,77.25217030000931,77.25217030000931,77.25217030000931,[-0.4351851851851852],[0.14444444444444443],[1],[0],[0],[1.478206699990551],['target'],4b,001,2023-09-28_18h29.18.466,visualsearch,2023.1.3,59.87704847000457,
28,0,28,0,10,78.76302330000908,78.76302330000908,78.76302330000908,[-0.11944444444444445],[0.03333333333333333],[1],[0],[0],[3.3031392999982927],[],4b,001,2023-09-28_18h29.18.466,visualsearch,2023.1.3,59.87704847000457,
29,0,29,0,10,82.10189830001036,82.10189830001036,82.10189830001036,[0.33425925925925926],[-0.3111111111111111],[1],[0],[0],[2.6368508000014117],['target'],4b,001,2023-09-28_18h29.18.466,visualsearch,2023.1.3,59.87704847000457,
30,0,30,0,10,84.8219805000117,84.8219805000117,84.8219805000117,[0.0712962962962963],[-0.26851851851851855],[1],[0],[0],[2.4783247000013944],['target'],4b,001,2023-09-28_18h29.18.466,visualsearch,2023.1.3,59.87704847000457,
31,0,31,0,5,87.34166820000974,87.34166820000974,87.34166820000974,[-0.2351851851851852],[0.01574074074074074],[1],[0],[0],[1.2811904000118375],['target'],4b,001,2023-09-28_18h29.18.466,visualsearch,2023.1.3,59.87704847000457,
32,0,32,0,5,88.65756630001124,88.65756630001124,88.65756630001124,[0.20555555555555555],[0.12129629629629629],[1],[0],[0],[1.3942078999971272],[],4b,001,2023-09-28_18h29.18.466,visualsearch,2023.1.3,59.87704847000457,
33,0,33,0,5,90.09020740000415,90.09020740000415,90.09020740000415,[0.07777777777777778],[-0.1824074074074074],[1],[0],[0],[1.0595707000029506],['target'],4b,001,2023-09-28_18h29.18.466,visualsearch,2023.1.3,59.87704847000457,
34,0,34,0,5,91.19148330000462,91.19148330000462,91.19148330000462,[-0.2759259259259259],[-0.4111111111111111],[1],[0],[0],[1.7643855000060285],[],4b,001,2023-09-28_18h29.18.466,visualsearch,2023.1.3,59.87704847000457,
35,0,35,0,10,93.04219480000029,93.04219480000029,93.04219480000029,[0.10648148148148148],[-0.08796296296296297],[1],[0],[0],[1.3195204999938142],['target'],4b,001,2023-09-28_18h29.18.466,visualsearch,2023.1.3,59.87704847000457,
36,0,36,0,10,94.42642390000401,94.42642390000401,94.42642390000401,[0.18888888888888888],[0.2],[1],[0],[0],[1.2375673000060488],['target'],4b,001,2023-09-28_18h29.18.466,visualsearch,2023.1.3,59.87704847000457,
37,0,37,0,5,95.69749540000339,95.69749540000339,95.69749540000339,[0.021296296296296296],[-0.3768518518518518],[1],[0],[0],[1.4952335999987554],[],4b,001,2023-09-28_18h29.18.466,visualsearch,2023.1.3,59.87704847000457,
38,0,38,0,10,97.27494230000593,97.27494230000593,97.27494230000593,[-0.4351851851851852],[-0.25555555555555554],[1],[0],[0],[2.3050719000020763],['target'],4b,001,2023-09-28_18h29.18.466,visualsearch,2023.1.3,59.87704847000457,
39,0,39,0,10,99.62951520000934,99.62951520000934,99.62951520000934,[-0.4962962962962963],[0.24444444444444444],[1],[0],[0],[12.526024299993878],['target'],4b,001,2023-09-28_18h29.18.466,visualsearch,2023.1.3,59.87704847000457,
40,0,40,0,10,112.24818010001036,112.24818010001036,112.24818010001036,[-0.4],[-0.3277777777777778],[1],[0],[0],[1.931998799991561],['target'],4b,001,2023-09-28_18h29.18.466,visualsearch,2023.1.3,59.87704847000457,
41,0,41,0,5,114.21465860000171,114.21465860000171,114.21465860000171,[-0.09259259259259259],[0.3509259259259259],[1],[0],[0],[1.5392260000080569],['target'],4b,001,2023-09-28_18h29.18.466,visualsearch,2023.1.3,59.87704847000457,
42,0,42,0,5,115.81093440001132,115.81093440001132,115.81093440001132,[-0.16018518518518518],[-0.45],[1],[0],[0],[1.7898824000003515],['target'],4b,001,2023-09-28_18h29.18.466,visualsearch,2023.1.3,59.87704847000457,
43,0,43,0,5,117.65860629999952,117.65860629999952,117.65860629999952,[0.4398148148148148],[0.10092592592592593],[1],[0],[0],[1.5626755999983288],['target'],4b,001,2023-09-28_18h29.18.466,visualsearch,2023.1.3,59.87704847000457,
44,0,44,0,10,119.3159333000076,119.3159333000076,119.3159333000076,[0.006481481481481481],[0.3537037037037037],[1],[0],[0],[1.5298690000054194],[],4b,001,2023-09-28_18h29.18.466,visualsearch,2023.1.3,59.87704847000457,
45,0,45,0,10,120.91083400000934,120.91083400000934,120.91083400000934,[0.02962962962962963],[-0.18425925925925926],[1],[0],[0],[1.8852955000038492],['target'],4b,001,2023-09-28_18h29.18.466,visualsearch,2023.1.3,59.87704847000457,
46,0,46,0,10,122.904755200012,122.904755200012,122.904755200012,[0.1361111111111111],[0.3453703703703704],[1],[0],[0],[1.8768931000086013],['target'],4b,001,2023-09-28_18h29.18.466,visualsearch,2023.1.3,59.87704847000457,
47,0,47,0,5,124.81149670000013,124.81149670000013,124.81149670000013,[-0.25462962962962965],[0.10555555555555556],[1],[0],[0],[1.7031743000115966],['target'],4b,001,2023-09-28_18h29.18.466,visualsearch,2023.1.3,59.87704847000457,
48,0,48,0,10,126.62511210000957,126.62511210000957,126.62511210000957,[0.36018518518518516],[-0.003703703703703704],[1],[0],[0],[3.708248700000695],['target'],4b,001,2023-09-28_18h29.18.466,visualsearch,2023.1.3,59.87704847000457,
49,0,49,0,10,130.42911780001305,130.42911780001305,130.42911780001305,[-0.4740740740740741],[0.4666666666666667],[1],[0],[0],[4.561089399998309],['target'],4b,001,2023-09-28_18h29.18.466,visualsearch,2023.1.3,59.87704847000457,
50,0,50,0,10,135.11208940000506,135.11208940000506,135.11208940000506,[0.1111111111111111],[-0.25092592592592594],[1],[0],[0],[1.627316999991308],['target'],4b,001,2023-09-28_18h29.18.466,visualsearch,2023.1.3,59.87704847000457,
51,0,51,0,5,136.76590290000604,136.76590290000604,136.76590290000604,[-0.42962962962962964],[0.47685185185185186],[1],[0],[0],[2.479104699988966],['target'],4b,001,2023-09-28_18h29.18.466,visualsearch,2023.1.3,59.87704847000457,
52,0,52,0,10,139.37277810000523,139.37277810000523,139.37277810000523,[-0.20277777777777778],[-0.3453703703703704],[1],[0],[0],[1.4699825999996392],['target'],4b,001,2023-09-28_18h29.18.466,visualsearch,2023.1.3,59.87704847000457,
53,0,53,0,5,140.8672387000115,140.8672387000115,140.8672387000115,[0.47314814814814815],[0.10925925925925926],[1],[0],[0],[1.188479999997071],['target'],4b,001,2023-09-28_18h29.18.466,visualsearch,2023.1.3,59.87704847000457,
54,0,54,0,5,142.10605300001043,142.10605300001043,142.10605300001043,[0.5064814814814815],[-0.125],[1],[0],[0],[1.1774079000024358],['target'],4b,001,2023-09-28_18h29.18.466,visualsearch,2023.1.3,59.87704847000457,
55,0,55,0,10,143.40872659999877,143.40872659999877,143.40872659999877,[0.36018518518518516],[0.20092592592592592],[1],[0],[0],[1.421282199997222],['target'],4b,001,2023-09-28_18h29.18.466,visualsearch,2023.1.3,59.87704847000457,
56,0,56,0,5,144.86539020000782,144.86539020000782,144.86539020000782,[0.06296296296296296],[0.009259259259259259],[1],[0],[0],[1.6412451999931363],['target'],4b,001,2023-09-28_18h29.18.466,visualsearch,2023.1.3,59.87704847000457,
57,0,57,0,10,146.59749980000197,146.59749980000197,146.59749980000197,[0.2953703703703704],[0.2712962962962963],[1],[0],[0],[1.6626586000056705],['target'],4b,001,2023-09-28_18h29.18.466,visualsearch,2023.1.3,59.87704847000457,
58,0,58,0,5,148.289073500011,148.289073500011,148.289073500011,[0.09351851851851851],[0.2722222222222222],[1],[0],[0],[1.3926916000054916],['target'],4b,001,2023-09-28_18h29.18.466,visualsearch,2023.1.3,59.87704847000457,
59,0,59,0,5,149.74065469999914,149.74065469999914,149.74065469999914,[0.21944444444444444],[0.4740740740740741],[1],[0],[0],[1.3293573000119068],['target'],4b,001,2023-09-28_18h29.18.466,visualsearch,2023.1.3,59.87704847000457,
60,0,60,0,5,151.1097249000013,151.1097249000013,151.1097249000013,[0.1787037037037037],[0.48148148148148145],[1],[0],[0],[2.9738209000061033],['target'],4b,001,2023-09-28_18h29.18.466,visualsearch,2023.1.3,59.87704847000457,
61,0,61,0,5,154.1265209000121,154.1265209000121,154.1265209000121,[-0.43148148148148147],[0.13703703703703704],[1],[0],[0],[1.4680347999965306],['target'],4b,001,2023-09-28_18h29.18.466,visualsearch,2023.1.3,59.87704847000457,
62,0,62,0,5,155.6521544999996,155.6521544999996,155.6521544999996,[-0.24074074074074073],[0.37222222222222223],[1],[0],[0],[1.2537888000078965],['target'],4b,001,2023-09-28_18h29.18.466,visualsearch,2023.1.3,59.87704847000457,
63,0,63,0,5,156.96008650001022,156.96008650001022,156.96008650001022,[-0.03518518518518519],[0.20092592592592592],[1],[0],[0],[1.7287691999954404],['target'],4b,001,2023-09-28_18h29.18.466,visualsearch,2023.1.3,59.87704847000457,
64,0,64,0,5,158.74690550001105,158.74690550001105,158.74690550001105,[0.22407407407407406],[0.4148148148148148],[1],[0],[0],[1.2383072999946307],['target'],4b,001,2023-09-28_18h29.18.466,visualsearch,2023.1.3,59.87704847000457,
65,0,65,0,5,160.02701770000567,160.02701770000567,160.02701770000567,[0.39351851851851855],[0.05185185185185185],[1],[0],[0],[1.563309900011518],['target'],4b,001,2023-09-28_18h29.18.466,visualsearch,2023.1.3,59.87704847000457,
66,0,66,0,5,161.65827090000676,161.65827090000676,161.65827090000676,[-0.41574074074074074],[0.10925925925925926],[1],[0],[0],[1.753006800005096],['target'],4b,001,2023-09-28_18h29.18.466,visualsearch,2023.1.3,59.87704847000457,
67,0,67,0,5,163.48666590001085,163.48666590001085,163.48666590001085,[0.39537037037037037],[-0.42592592592592593],[1],[0],[0],[1.7839431000029435],['target'],4b,001,2023-09-28_18h29.18.466,visualsearch,2023.1.3,59.87704847000457,
68,0,68,0,10,165.33717130000878,165.33717130000878,165.33717130000878,[-0.018518518518518517],[0.14074074074074075],[1],[0],[0],[1.8772639999951934],[],4b,001,2023-09-28_18h29.18.466,visualsearch,2023.1.3,59.87704847000457,
69,0,69,0,10,167.31503730000986,167.31503730000986,167.31503730000986,[0.5083333333333333],[0.33240740740740743],[1],[0],[0],[1.5989149999950314],['target'],4b,001,2023-09-28_18h29.18.466,visualsearch,2023.1.3,59.87704847000457,
70,0,70,0,5,168.96038670001144,168.96038670001144,168.96038670001144,[-0.33240740740740743],[-0.44351851851851853],[1],[0],[0],[2.8379835999949137],[],4b,001,2023-09-28_18h29.18.466,visualsearch,2023.1.3,59.87704847000457,
71,0,71,0,10,171.86540030001197,171.86540030001197,171.86540030001197,[-0.27870370370370373],[-0.42777777777777776],[1],[0],[0],[1.087812900004792],['target'],4b,001,2023-09-28_18h29.18.466,visualsearch,2023.1.3,59.87704847000457,
72,0,72,0,10,173.0229585000052,173.0229585000052,173.0229585000052,[-0.03425925925925926],[-0.1787037037037037],[1],[0],[0],[1.439647999999579],['target'],4b,001,2023-09-28_18h29.18.466,visualsearch,2023.1.3,59.87704847000457,
73,0,73,0,5,174.48671500000637,174.48671500000637,174.48671500000637,[-0.053703703703703705],[0.15833333333333333],[1],[0],[0],[1.9358164000004763],['target'],4b,001,2023-09-28_18h29.18.466,visualsearch,2023.1.3,59.87704847000457,
74,0,74,0,10,176.52239130000817,176.52239130000817,176.52239130000817,[-0.524074074074074],[0.3388888888888889],[1],[0],[0],[1.9445783999981359],[],4b,001,2023-09-28_18h29.18.466,visualsearch,2023.1.3,59.87704847000457,
75,0,75,0,10,178.5234793999989,178.5234793999989,178.5234793999989,[-0.20277777777777778],[0.3074074074074074],[1],[0],[0],[1.5644535000028554],['target'],4b,001,2023-09-28_18h29.18.466,visualsearch,2023.1.3,59.87704847000457,
76,0,76,0,10,180.15570840000873,180.15570840000873,180.15570840000873,[-0.2675925925925926],[0.4759259259259259],[1],[0],[0],[4.0177643000060925],['target'],4b,001,2023-09-28_18h29.18.466,visualsearch,2023.1.3,59.87704847000457,
77,0,77,0,10,184.2573437000101,184.2573437000101,184.2573437000101,[0.002777777777777778],[0.3333333333333333],[1],[0],[0],[1.4220016000035685],['target'],4b,001,2023-09-28_18h29.18.466,visualsearch,2023.1.3,59.87704847000457,
78,0,78,0,10,185.74196330000996,185.74196330000996,185.74196330000996,[0.13240740740740742],[0.412962962962963],[1],[0],[0],[1.484180400002515],['target'],4b,001,2023-09-28_18h29.18.466,visualsearch,2023.1.3,59.87704847000457,
79,0,79,0,10,187.27943330000562,187.27943330000562,187.27943330000562,[-0.2675925925925926],[-0.4083333333333333],[1],[0],[0],[2.249233099995763],[],4b,001,2023-09-28_18h29.18.466,visualsearch,2023.1.3,59.87704847000457,
80,0,80,0,10,189.59052880000672,189.59052880000672,189.59052880000672,[0.4601851851851852],[-0.07685185185185185],[1],[0],[0],[2.51681610000378],['target'],4b,001,2023-09-28_18h29.18.466,visualsearch,2023.1.3,59.87704847000457,
81,0,81,0,5,192.1371821000066,192.1371821000066,192.1371821000066,[-0.2972222222222222],[-0.2388888888888889],[1],[0],[0],[1.5493532000109553],['target'],4b,001,2023-09-28_18h29.18.466,visualsearch,2023.1.3,59.87704847000457,
82,0,82,0,5,193.76078290000441,193.76078290000441,193.76078290000441,[-0.4462962962962963],[0.11851851851851852],[1],[0],[0],[2.3643505000072764],['target'],4b,001,2023-09-28_18h29.18.466,visualsearch,2023.1.3,59.87704847000457,
83,0,83,0,10,196.24527440000384,196.24527440000384,196.24527440000384,[0.22037037037037038],[0.4],[1],[0],[0],[3.476096900005359],['target'],4b,001,2023-09-28_18h29.18.466,visualsearch,2023.1.3,59.87704847000457,
84,0,84,0,5,199.74172080001154,199.74172080001154,199.74172080001154,[-0.31666666666666665],[0.20277777777777778],[1],[0],[0],[1.5585810000047786],['target'],4b,001,2023-09-28_18h29.18.466,visualsearch,2023.1.3,59.87704847000457,
85,0,85,0,5,201.34021170000779,201.34021170000779,201.34021170000779,[0.29259259259259257],[0.3962962962962963],[1],[0],[0],[1.8762381999986246],['target'],4b,001,2023-09-28_18h29.18.466,visualsearch,2023.1.3,59.87704847000457,
86,0,86,0,5,203.3082454000105,203.3082454000105,203.3082454000105,[-0.2037037037037037],[-0.07592592592592592],[1],[0],[0],[1.6303372999973362],['target'],4b,001,2023-09-28_18h29.18.466,visualsearch,2023.1.3,59.87704847000457,
87,0,87,0,5,204.98082300000533,204.98082300000533,204.98082300000533,[0.36574074074074076],[0.20277777777777778],[1],[0],[0],[1.4955724000028567],['target'],4b,001,2023-09-28_18h29.18.466,visualsearch,2023.1.3,59.87704847000457,
88,0,88,0,10,206.55240820000472,206.55240820000472,206.55240820000472,[0.13333333333333333],[0.2611111111111111],[1],[0],[0],[1.4606547999865143],['target'],4b,001,2023-09-28_18h29.18.466,visualsearch,2023.1.3,59.87704847000457,
89,0,89,0,10,208.08937349999906,208.08937349999906,208.08937349999906,[0.23703703703703705],[-0.21666666666666667],[1],[0],[0],[2.2825245000130963],['target'],4b,001,2023-09-28_18h29.18.466,visualsearch,2023.1.3,59.87704847000457,
90,0,90,0,5,210.44672520000313,210.44672520000313,210.44672520000313,[0.18981481481481483],[0.2611111111111111],[1],[0],[0],[1.2722499999945285],['target'],4b,001,2023-09-28_18h29.18.466,visualsearch,2023.1.3,59.87704847000457,
91,0,91,0,5,211.817097200008,211.817097200008,211.817097200008,[0.1398148148148148],[-0.14907407407407408],[1],[0],[0],[1.4555246999952942],['target'],4b,001,2023-09-28_18h29.18.466,visualsearch,2023.1.3,59.87704847000457,
92,0,92,0,10,213.38811949999945,213.38811949999945,213.38811949999945,[0.14444444444444443],[0.03796296296296296],[1],[0],[0],[1.7063444000086747],['target'],4b,001,2023-09-28_18h29.18.466,visualsearch,2023.1.3,59.87704847000457,
93,0,93,0,5,215.11923750001006,215.11923750001006,215.11923750001006,[-0.22962962962962963],[0.32222222222222224],[1],[0],[0],[1.5249273000081303],['target'],4b,001,2023-09-28_18h29.18.466,visualsearch,2023.1.3,59.87704847000457,
94,0,94,0,5,216.66775930000586,216.66775930000586,216.66775930000586,[0.2833333333333333],[-0.25925925925925924],[1],[0],[0],[2.049900500001968],[],4b,001,2023-09-28_18h29.18.466,visualsearch,2023.1.3,59.87704847000457,
95,0,95,0,10,218.85480080000707,218.85480080000707,218.85480080000707,[0.24166666666666667],[-0.262037037037037],[1],[0],[0],[1.34642139999778],['target'],4b,001,2023-09-28_18h29.18.466,visualsearch,2023.1.3,59.87704847000457,
96,0,96,0,10,220.28091359999962,220.28091359999962,220.28091359999962,[-0.2212962962962963],[-0.48333333333333334],[1],[0],[0],[1.9194145999936154],['target'],4b,001,2023-09-28_18h29.18.466,visualsearch,2023.1.3,59.87704847000457,
97,0,97,0,10,222.28277990000788,222.28277990000788,222.28277990000788,[-0.37407407407407406],[-0.15185185185185185],[1],[0],[0],[2.4540852999925846],['target'],4b,001,2023-09-28_18h29.18.466,visualsearch,2023.1.3,59.87704847000457,
98,0,98,0,10,224.7873574000114,224.7873574000114,224.7873574000114,[-0.26666666666666666],[0.14444444444444443],[1],[0],[0],[1.1400608000112697],['target'],4b,001,2023-09-28_18h29.18.466,visualsearch,2023.1.3,59.87704847000457,
99,0,99,0,10,226.01942290000443,226.01942290000443,226.01942290000443,[-0.20925925925925926],[0.3712962962962963],[1],[0],[0],[1.7193320999940624],['target'],4b,001,2023-09-28_18h29.18.466,visualsearch,2023.1.3,59.87704847000457,
100,0,100,0,10,227.82791970000835,227.82791970000835,227.82791970000835,[0.5064814814814815],[-0.2537037037037037],[1],[0],[0],[2.412066100005177],['target'],4b,001,2023-09-28_18h29.18.466,visualsearch,2023.1.3,59.87704847000457,
101,0,101,0,5,230.26454920000106,230.26454920000106,230.26454920000106,[0.3314814814814815],[-0.12407407407407407],[1],[0],[0],[1.3130965999880573],['target'],4b,001,2023-09-28_18h29.18.466,visualsearch,2023.1.3,59.87704847000457,
102,0,102,0,10,231.70832610000798,231.70832610000798,231.70832610000798,[-0.32222222222222224],[-0.30462962962962964],[1],[0],[0],[1.563461899990216],['target'],4b,001,2023-09-28_18h29.18.466,visualsearch,2023.1.3,59.87704847000457,
103,0,103,0,10,233.38303470000392,233.38303470000392,233.38303470000392,[-0.19814814814814816],[0.06759259259259259],[1],[0],[0],[1.5502684999955818],['target'],4b,001,2023-09-28_18h29.18.466,visualsearch,2023.1.3,59.87704847000457,
104,0,104,0,10,235.02840220001235,235.02840220001235,235.02840220001235,[0.05925925925925926],[0.1287037037037037],[1],[0],[0],[1.9425124999979744],['target'],4b,001,2023-09-28_18h29.18.466,visualsearch,2023.1.3,59.87704847000457,
105,0,105,0,5,237.01755260000937,237.01755260000937,237.01755260000937,[0.39537037037037037],[-0.1648148148148148],[1],[0],[0],[1.50455709999369],['target'],4b,001,2023-09-28_18h29.18.466,visualsearch,2023.1.3,59.87704847000457,
106,0,106,0,5,238.593013900012,238.593013900012,238.593013900012,[0.1425925925925926],[0.13148148148148148],[1],[0],[0],[1.2896098000055645],['target'],4b,001,2023-09-28_18h29.18.466,visualsearch,2023.1.3,59.87704847000457,
107,0,107,0,5,239.9398063000117,239.9398063000117,239.9398063000117,[-0.14351851851851852],[0.16666666666666666],[1],[0],[0],[1.8035762000072282],['target'],4b,001,2023-09-28_18h29.18.466,visualsearch,2023.1.3,59.87704847000457,
108,0,108,0,5,241.8155867000023,241.8155867000023,241.8155867000023,[0.44722222222222224],[0.025925925925925925],[1],[0],[0],[1.714715599999181],['target'],4b,001,2023-09-28_18h29.18.466,visualsearch,2023.1.3,59.87704847000457,
109,0,109,0,10,243.62793349999993,243.62793349999993,243.62793349999993,[-0.30833333333333335],[-0.041666666666666664],[1],[0],[0],[1.8975865999964299],['target'],4b,001,2023-09-28_18h29.18.466,visualsearch,2023.1.3,59.87704847000457,
110,0,110,0,10,245.59516530000838,245.59516530000838,245.59516530000838,[0.005555555555555556],[-0.08611111111111111],[1],[0],[0],[1.300602199989953],['target'],4b,001,2023-09-28_18h29.18.466,visualsearch,2023.1.3,59.87704847000457,
111,0,111,0,5,246.92349380000087,246.92349380000087,246.92349380000087,[-0.09722222222222222],[0.1925925925925926],[1],[0],[0],[1.500313800002914],['target'],4b,001,2023-09-28_18h29.18.466,visualsearch,2023.1.3,59.87704847000457,
112,0,112,0,5,248.47533920001297,248.47533920001297,248.47533920001297,[0.3861111111111111],[0.2796296296296296],[1],[0],[0],[2.411858100007521],['target'],4b,001,2023-09-28_18h29.18.466,visualsearch,2023.1.3,59.87704847000457,
113,0,113,0,10,250.94330250000348,250.94330250000348,250.94330250000348,[-0.23055555555555557],[-0.2638888888888889],[1],[0],[0],[2.4158637000073213],['target'],4b,001,2023-09-28_18h29.18.466,visualsearch,2023.1.3,59.87704847000457,
114,0,114,0,5,253.4512701000058,253.4512701000058,253.4512701000058,[-0.2074074074074074],[-0.018518518518518517],[1],[0],[0],[1.7394550999888452],['target'],4b,001,2023-09-28_18h29.18.466,visualsearch,2023.1.3,59.87704847000457,
115,0,115,0,10,255.27689310000278,255.27689310000278,255.27689310000278,[0.41388888888888886],[-0.046296296296296294],[1],[0],[0],[2.228945599999861],['target'],4b,001,2023-09-28_18h29.18.466,visualsearch,2023.1.3,59.87704847000457,
116,0,116,0,5,257.53935150000325,257.53935150000325,257.53935150000325,[-0.29444444444444445],[0.4148148148148148],[1],[0],[0],[1.6304383000097005],['target'],4b,001,2023-09-28_18h29.18.466,visualsearch,2023.1.3,59.87704847000457,
117,0,117,0,5,259.2202587000065,259.2202587000065,259.2202587000065,[-0.001851851851851852],[0.2574074074074074],[1],[0],[0],[2.1628086999990046],['target'],4b,001,2023-09-28_18h29.18.466,visualsearch,2023.1.3,59.87704847000457,
118,0,118,0,10,261.4914744000125,261.4914744000125,261.4914744000125,[0.4287037037037037],[0.12129629629629629],[1],[0],[0],[2.9918275000090944],['target'],4b,001,2023-09-28_18h29.18.466,visualsearch,2023.1.3,59.87704847000457,
119,0,119,0,10,264.5461612000072,264.5461612000072,264.5461612000072,[0.3490740740740741],[0.17407407407407408],[1],[0],[0],[1.1198404000024311],['target'],4b,001,2023-09-28_18h29.18.466,visualsearch,2023.1.3,59.87704847000457,
120,0,120,0,5,265.7041836999997,265.7041836999997,265.7041836999997,[0.032407407407407406],[0.3194444444444444],[1],[0],[0],[1.3581162000045879],['target'],4b,001,2023-09-28_18h29.18.466,visualsearch,2023.1.3,59.87704847000457,
121,0,121,0,10,267.20211250000284,267.20211250000284,267.20211250000284,[-0.020370370370370372],[0.325],[1],[0],[0],[1.1153480000066338],['target'],4b,001,2023-09-28_18h29.18.466,visualsearch,2023.1.3,59.87704847000457,
122,0,122,0,5,268.38664000001154,268.38664000001154,268.38664000001154,[-0.3472222222222222],[-0.21944444444444444],[1],[0],[0],[1.5001560999953654],['target'],4b,001,2023-09-28_18h29.18.466,visualsearch,2023.1.3,59.87704847000457,
123,0,123,0,10,269.99036350000824,269.99036350000824,269.99036350000824,[-0.3592592592592593],[-0.4583333333333333],[1],[0],[0],[1.6979761000111466],['target'],4b,001,2023-09-28_18h29.18.466,visualsearch,2023.1.3,59.87704847000457,
124,0,124,0,5,271.76658999999927,271.76658999999927,271.76658999999927,[0.21851851851851853],[-0.30648148148148147],[1],[0],[0],[1.7253474000026472],['target'],4b,001,2023-09-28_18h29.18.466,visualsearch,2023.1.3,59.87704847000457,
125,0,125,0,5,273.57196630000544,273.57196630000544,273.57196630000544,[0.03981481481481482],[0.1824074074074074],[1],[0],[0],[2.350659799994901],['target'],4b,001,2023-09-28_18h29.18.466,visualsearch,2023.1.3,59.87704847000457,
126,0,126,0,5,276.0047246000031,276.0047246000031,276.0047246000031,[-0.30648148148148147],[-0.16018518518518518],[1],[0],[0],[1.3574134000082267],['target'],4b,001,2023-09-28_18h29.18.466,visualsearch,2023.1.3,59.87704847000457,
127,0,127,0,5,277.4404305000062,277.4404305000062,277.4404305000062,[-0.4083333333333333],[-0.15555555555555556],[1],[0],[0],[1.31891089999408],['target'],4b,001,2023-09-28_18h29.18.466,visualsearch,2023.1.3,59.87704847000457,
128,0,128,0,10,278.93004730000393,278.93004730000393,278.93004730000393,[0.14074074074074075],[0.412962962962963],[1],[0],[0],[1.4686963999993168],['target'],4b,001,2023-09-28_18h29.18.466,visualsearch,2023.1.3,59.87704847000457,
129,0,129,0,10,280.44873790000565,280.44873790000565,280.44873790000565,[-0.16111111111111112],[-0.12037037037037036],[1],[0],[0],[1.5729005999892252],['target'],4b,001,2023-09-28_18h29.18.466,visualsearch,2023.1.3,59.87704847000457,
130,0,130,0,10,282.1365525000001,282.1365525000001,282.1365525000001,[-0.48703703703703705],[0.10092592592592593],[1],[0],[0],[2.114849100005813],['target'],4b,001,2023-09-28_18h29.18.466,visualsearch,2023.1.3,59.87704847000457,
131,0,131,0,10,284.3829478000116,284.3829478000116,284.3829478000116,[0.2074074074074074],[0.10185185185185185],[1],[0],[0],[2.0692909999925178],['target'],4b,001,2023-09-28_18h29.18.466,visualsearch,2023.1.3,59.87704847000457,
132,0,132,0,10,286.5451991000009,286.5451991000009,286.5451991000009,[0.49907407407407406],[-0.3277777777777778],[1],[0],[0],[2.514841099997284],['target'],4b,001,2023-09-28_18h29.18.466,visualsearch,2023.1.3,59.87704847000457,
133,0,133,0,10,289.1119015000004,289.1119015000004,289.1119015000004,[-0.2564814814814815],[-0.29444444444444445],[1],[0],[0],[2.0543239999969956],['target'],4b,001,2023-09-28_18h29.18.466,visualsearch,2023.1.3,59.87704847000457,
134,0,134,0,10,291.31992180000816,291.31992180000816,291.31992180000816,[0.007407407407407408],[0.3787037037037037],[1],[0],[0],[2.9905904000042938],['target'],4b,001,2023-09-28_18h29.18.466,visualsearch,2023.1.3,59.87704847000457,
135,0,135,0,10,294.35116160000325,294.35116160000325,294.35116160000325,[-0.09259259259259259],[-0.42407407407407405],[1],[0],[0],[2.6960090000065975],['target'],4b,001,2023-09-28_18h29.18.466,visualsearch,2023.1.3,59.87704847000457,
136,0,136,0,5,297.095739700002,297.095739700002,297.095739700002,[-0.5138888888888888],[0.22777777777777777],[1],[0],[0],[1.816930400003912],[],4b,001,2023-09-28_18h29.18.466,visualsearch,2023.1.3,59.87704847000457,
137,0,137,0,10,298.9649505000125,298.9649505000125,298.9649505000125,[0.21203703703703702],[0.12777777777777777],[1],[0],[0],[1.649170700009563],['target'],4b,001,2023-09-28_18h29.18.466,visualsearch,2023.1.3,59.87704847000457,
138,0,138,0,5,300.6782561,300.6782561,300.6782561,[-0.11944444444444445],[0.14722222222222223],[1],[0],[0],[1.3438148999994155],['target'],4b,001,2023-09-28_18h29.18.466,visualsearch,2023.1.3,59.87704847000457,
139,0,139,0,5,302.0555960000056,302.0555960000056,302.0555960000056,[0.4148148148148148],[0.18703703703703703],[1],[0],[0],[1.6850263999949675],['target'],4b,001,2023-09-28_18h29.18.466,visualsearch,2023.1.3,59.87704847000457,
140,0,140,0,10,303.9028646000079,303.9028646000079,303.9028646000079,[0.39166666666666666],[-0.1935185185185185],[1],[0],[0],[1.8957763000071282],['target'],4b,001,2023-09-28_18h29.18.466,visualsearch,2023.1.3,59.87704847000457,
141,0,141,0,10,305.8804472000047,305.8804472000047,305.8804472000047,[0.1787037037037037],[-0.014814814814814815],[1],[0],[0],[1.8602677999879234],['target'],4b,001,2023-09-28_18h29.18.466,visualsearch,2023.1.3,59.87704847000457,
142,0,142,0,5,307.7469937999995,307.7469937999995,307.7469937999995,[0.3388888888888889],[0.11203703703703703],[1],[0],[0],[2.0464037000056123],['target'],4b,001,2023-09-28_18h29.18.466,visualsearch,2023.1.3,59.87704847000457,
143,0,143,0,5,309.84969750000164,309.84969750000164,309.84969750000164,[-0.35648148148148145],[0.4888888888888889],[1],[0],[0],[2.4554848999978276],['target'],4b,001,2023-09-28_18h29.18.466,visualsearch,2023.1.3,59.87704847000457,
144,0,144,0,5,312.39285210000526,312.39285210000526,312.39285210000526,[-0.3333333333333333],[-0.075],[1],[0],[0],[1.2499462999985553],['target'],4b,001,2023-09-28_18h29.18.466,visualsearch,2023.1.3,59.87704847000457,
145,0,145,0,5,313.7107105000032,313.7107105000032,313.7107105000032,[0.40555555555555556],[0.025925925925925925],[1],[0],[0],[1.9326189999992494],[],4b,001,2023-09-28_18h29.18.466,visualsearch,2023.1.3,59.87704847000457,
146,0,146,0,10,315.73356780000904,315.73356780000904,315.73356780000904,[0.09444444444444444],[-0.04259259259259259],[1],[0],[0],[1.4013368000014452],['target'],4b,001,2023-09-28_18h29.18.466,visualsearch,2023.1.3,59.87704847000457,
147,0,147,0,5,317.17296570001054,317.17296570001054,317.17296570001054,[0.03333333333333333],[-0.15925925925925927],[1],[0],[0],[1.2081605999992462],['target'],4b,001,2023-09-28_18h29.18.466,visualsearch,2023.1.3,59.87704847000457,
148,0,148,0,5,318.4657561000058,318.4657561000058,318.4657561000058,[-0.35462962962962963],[-0.10185185185185185],[1],[0],[0],[1.4210595000040485],[],4b,001,2023-09-28_18h29.18.466,visualsearch,2023.1.3,59.87704847000457,
149,0,149,0,10,319.9178646000073,319.9178646000073,319.9178646000073,[0.03611111111111111],[0.1648148148148148],[1],[0],[0],[1.414588300001924],['target'],4b,001,2023-09-28_18h29.18.466,visualsearch,2023.1.3,59.87704847000457,
150,0,150,0,5,321.37805300000764,321.37805300000764,321.37805300000764,[-0.27037037037037037],[-0.32407407407407407],[1],[0],[0],[1.6771668000001227],['target'],4b,001,2023-09-28_18h29.18.466,visualsearch,2023.1.3,59.87704847000457,
151,0,151,0,5,323.08962460000475,323.08962460000475,323.08962460000475,[0.23703703703703705],[-0.4546296296296296],[1],[0],[0],[1.8382345999998506],['target'],4b,001,2023-09-28_18h29.18.466,visualsearch,2023.1.3,59.87704847000457,
152,0,152,0,10,325.05763260000094,325.05763260000094,325.05763260000094,[0.34629629629629627],[-0.375],[1],[0],[0],[2.147263999999268],['target'],4b,001,2023-09-28_18h29.18.466,visualsearch,2023.1.3,59.87704847000457,
153,0,153,0,10,327.2913996999996,327.2913996999996,327.2913996999996,[-0.12037037037037036],[-0.29259259259259257],[1],[0],[0],[1.5650918000028469],[],4b,001,2023-09-28_18h29.18.466,visualsearch,2023.1.3,59.87704847000457,
154,0,154,0,5,328.9199953000061,328.9199953000061,328.9199953000061,[0.3111111111111111],[-0.3592592592592593],[1],[0],[0],[1.3520431999932043],[],4b,001,2023-09-28_18h29.18.466,visualsearch,2023.1.3,59.87704847000457,
155,0,155,0,10,330.3534290000098,330.3534290000098,330.3534290000098,[0.001851851851851852],[0.05555555555555555],[1],[0],[0],[1.150324999995064],['target'],4b,001,2023-09-28_18h29.18.466,visualsearch,2023.1.3,59.87704847000457,
156,0,156,0,5,331.5560464000009,331.5560464000009,331.5560464000009,[-0.3888888888888889],[-0.005555555555555556],[1],[0],[0],[0.993457499993383],[],4b,001,2023-09-28_18h29.18.466,visualsearch,2023.1.3,59.87704847000457,
157,0,157,0,10,332.63542289999896,332.63542289999896,332.63542289999896,[0.4740740740740741],[-0.31666666666666665],[1],[0],[0],[1.9360994000016944],[],4b,001,2023-09-28_18h29.18.466,visualsearch,2023.1.3,59.87704847000457,
158,0,158,0,10,334.6457143000007,334.6457143000007,334.6457143000007,[0.43796296296296294],[-0.37037037037037035],[1],[0],[0],[2.1403683999960776],['target'],4b,001,2023-09-28_18h29.18.466,visualsearch,2023.1.3,59.87704847000457,
159,0,159,0,10,336.85943670000415,336.85943670000415,336.85943670000415,[0.001851851851851852],[0.09259259259259259],[1],[0],[0],[1.3245451999973739],['target'],4b,001,2023-09-28_18h29.18.466,visualsearch,2023.1.3,59.87704847000457,
160,0,160,0,10,338.2932460000011,338.2932460000011,338.2932460000011,[-0.14537037037037037],[-0.49907407407407406],[1],[0],[0],[4.6427113999961875],[],4b,001,2023-09-28_18h29.18.466,visualsearch,2023.1.3,59.87704847000457,
161,0,161,0,10,343.0295424000069,343.0295424000069,343.0295424000069,[-0.05925925925925926],[-0.07222222222222222],[1],[0],[0],[1.327709599994705],['target'],4b,001,2023-09-28_18h29.18.466,visualsearch,2023.1.3,59.87704847000457,
162,0,162,0,10,344.45541290000256,344.45541290000256,344.45541290000256,[0.044444444444444446],[-0.16111111111111112],[1],[0],[0],[0.8886521000094945],['target'],4b,001,2023-09-28_18h29.18.466,visualsearch,2023.1.3,59.87704847000457,
163,0,163,0,10,345.4065988000075,345.4065988000075,345.4065988000075,[-0.29814814814814816],[0.33240740740740743],[1],[0],[0],[2.060031100001652],['target'],4b,001,2023-09-28_18h29.18.466,visualsearch,2023.1.3,59.87704847000457,
164,0,164,0,5,347.5496393000067,347.5496393000067,347.5496393000067,[0.1037037037037037],[-0.03425925925925926],[1],[0],[0],[1.325920600007521],[],4b,001,2023-09-28_18h29.18.466,visualsearch,2023.1.3,59.87704847000457,
165,0,165,0,10,348.98985040000116,348.98985040000116,348.98985040000116,[0.26296296296296295],[-0.19814814814814816],[1],[0],[0],[1.2249826000042958],['target'],4b,001,2023-09-28_18h29.18.466,visualsearch,2023.1.3,59.87704847000457,
166,0,166,0,5,350.25888570000825,350.25888570000825,350.25888570000825,[-0.2074074074074074],[0.44166666666666665],[1],[0],[0],[1.5568161999981385],['target'],4b,001,2023-09-28_18h29.18.466,visualsearch,2023.1.3,59.87704847000457,
167,0,167,0,10,351.8750402000005,351.8750402000005,351.8750402000005,[-0.21851851851851853],[-0.12222222222222222],[1],[0],[0],[1.7630970999889541],['target'],4b,001,2023-09-28_18h29.18.466,visualsearch,2023.1.3,59.87704847000457,
168,0,168,0,5,353.6847364999994,353.6847364999994,353.6847364999994,[0.26296296296296295],[-0.17685185185185184],[1],[0],[0],[1.7607011000072816],[],4b,001,2023-09-28_18h29.18.466,visualsearch,2023.1.3,59.87704847000457,
169,0,169,0,5,355.5590766000096,355.5590766000096,355.5590766000096,[0.15185185185185185],[-0.2861111111111111],[1],[0],[0],[1.2180214999971213],['target'],4b,001,2023-09-28_18h29.18.466,visualsearch,2023.1.3,59.87704847000457,
170,0,170,0,5,356.8349403000029,356.8349403000029,356.8349403000029,[-0.12222222222222222],[0.20925925925925926],[1],[0],[0],[1.6175406999973347],['target'],4b,001,2023-09-28_18h29.18.466,visualsearch,2023.1.3,59.87704847000457,
171,0,171,0,10,358.5963219000114,358.5963219000114,358.5963219000114,[0.011111111111111112],[-0.44907407407407407],[1],[0],[0],[2.380580099998042],['target'],4b,001,2023-09-28_18h29.18.466,visualsearch,2023.1.3,59.87704847000457,
172,0,172,0,10,361.0516604000004,361.0516604000004,361.0516604000004,[-0.48148148148148145],[0.49907407407407406],[1],[0],[0],[1.769389000008232],[],4b,001,2023-09-28_18h29.18.466,visualsearch,2023.1.3,59.87704847000457,
173,0,173,0,10,362.93740160000743,362.93740160000743,362.93740160000743,[0.03888888888888889],[0.13703703703703704],[1],[0],[0],[1.8246043999970425],[],4b,001,2023-09-28_18h29.18.466,visualsearch,2023.1.3,59.87704847000457,
174,0,174,0,5,364.78614070000185,364.78614070000185,364.78614070000185,[0.046296296296296294],[-0.3972222222222222],[1],[0],[0],[1.5895679999957792],[],4b,001,2023-09-28_18h29.18.466,visualsearch,2023.1.3,59.87704847000457,
175,0,175,0,5,366.4329304999992,366.4329304999992,366.4329304999992,[0.28703703703703703],[-0.48703703703703705],[1],[0],[0],[1.4788161000033142],[],4b,001,2023-09-28_18h29.18.466,visualsearch,2023.1.3,59.87704847000457,
176,0,176,0,10,368.0077713000064,368.0077713000064,368.0077713000064,[0.2675925925925926],[0.24259259259259258],[1],[0],[0],[1.24014329999045],['target'],4b,001,2023-09-28_18h29.18.466,visualsearch,2023.1.3,59.87704847000457,
177,0,177,0,5,369.2654967999988,369.2654967999988,369.2654967999988,[0.058333333333333334],[0.3611111111111111],[1],[0],[0],[1.34694390000368],['target'],4b,001,2023-09-28_18h29.18.466,visualsearch,2023.1.3,59.87704847000457,
178,0,178,0,5,370.6903466000076,370.6903466000076,370.6903466000076,[0.06481481481481481],[-0.362962962962963],[1],[0],[0],[1.7438887000025716],['target'],4b,001,2023-09-28_18h29.18.466,visualsearch,2023.1.3,59.87704847000457,
179,0,179,0,10,372.56660030000785,372.56660030000785,372.56660030000785,[0.12407407407407407],[-0.37407407407407406],[1],[0],[0],[1.7046550999948522],['target'],4b,001,2023-09-28_18h29.18.466,visualsearch,2023.1.3,59.87704847000457,
180,0,180,0,5,374.3310463000089,374.3310463000089,374.3310463000089,[0.12129629629629629],[0.15],[1],[0],[0],[1.296489800006384],['target'],4b,001,2023-09-28_18h29.18.466,visualsearch,2023.1.3,59.87704847000457,
181,0,181,0,5,375.6613047999999,375.6613047999999,375.6613047999999,[-0.49074074074074076],[-0.18333333333333332],[1],[0],[0],[1.579143800001475],['target'],4b,001,2023-09-28_18h29.18.466,visualsearch,2023.1.3,59.87704847000457,
182,0,182,0,10,377.39377270000114,377.39377270000114,377.39377270000114,[-0.046296296296296294],[0.36574074074074076],[1],[0],[0],[1.7885948000039207],['target'],4b,001,2023-09-28_18h29.18.466,visualsearch,2023.1.3,59.87704847000457,
183,0,183,0,10,379.24103980000655,379.24103980000655,379.24103980000655,[0.10925925925925926],[0.4166666666666667],[1],[0],[0],[1.3884558999998262],['target'],4b,001,2023-09-28_18h29.18.466,visualsearch,2023.1.3,59.87704847000457,
184,0,184,0,10,380.68772850000823,380.68772850000823,380.68772850000823,[-0.16574074074074074],[0.26851851851851855],[1],[0],[0],[1.109603499993682],['target'],4b,001,2023-09-28_18h29.18.466,visualsearch,2023.1.3,59.87704847000457,
185,0,185,0,5,381.83294490000117,381.83294490000117,381.83294490000117,[-0.3435185185185185],[-0.40555555555555556],[1],[0],[0],[1.7494432999956189],['target'],4b,001,2023-09-28_18h29.18.466,visualsearch,2023.1.3,59.87704847000457,
186,0,186,0,10,383.7017202999996,383.7017202999996,383.7017202999996,[-0.12407407407407407],[-0.37222222222222223],[1],[0],[0],[1.2678873999975622],['target'],4b,001,2023-09-28_18h29.18.466,visualsearch,2023.1.3,59.87704847000457,
187,0,187,0,5,385.0071510000125,385.0071510000125,385.0071510000125,[0.062037037037037036],[-0.31666666666666665],[1],[0],[0],[1.2113480999978492],[],4b,001,2023-09-28_18h29.18.466,visualsearch,2023.1.3,59.87704847000457,
188,0,188,0,10,386.3253193000128,386.3253193000128,386.3253193000128,[-0.1175925925925926],[-0.19907407407407407],[1],[0],[0],[1.5250788999983342],['target'],4b,001,2023-09-28_18h29.18.466,visualsearch,2023.1.3,59.87704847000457,
189,0,189,0,5,387.901875800002,387.901875800002,387.901875800002,[-0.2851851851851852],[0.4361111111111111],[1],[0],[0],[1.5748253000056138],['target'],4b,001,2023-09-28_18h29.18.466,visualsearch,2023.1.3,59.87704847000457,
190,0,190,0,10,389.5797290000046,389.5797290000046,389.5797290000046,[-0.12962962962962962],[0.2722222222222222],[1],[0],[0],[1.3525857999920845],['target'],4b,001,2023-09-28_18h29.18.466,visualsearch,2023.1.3,59.87704847000457,
191,0,191,0,10,391.0086527000094,391.0086527000094,391.0086527000094,[0.27870370370370373],[-0.05462962962962963],[1],[0],[0],[1.6207390999916242],['target'],4b,001,2023-09-28_18h29.18.466,visualsearch,2023.1.3,59.87704847000457,
192,0,192,0,5,392.6821764000051,392.6821764000051,392.6821764000051,[0.41574074074074074],[-0.42314814814814816],[1],[0],[0],[1.87812359999225],['target'],4b,001,2023-09-28_18h29.18.466,visualsearch,2023.1.3,59.87704847000457,
193,0,193,0,5,394.62151840000297,394.62151840000297,394.62151840000297,[0.24074074074074073],[0.19907407407407407],[1],[0],[0],[1.0365638000075705],['target'],4b,001,2023-09-28_18h29.18.466,visualsearch,2023.1.3,59.87704847000457,
194,0,194,0,10,395.7120214000024,395.7120214000024,395.7120214000024,[0.05092592592592592],[-0.49166666666666664],[1],[0],[0],[2.8162085999938427],['target'],4b,001,2023-09-28_18h29.18.466,visualsearch,2023.1.3,59.87704847000457,
195,0,195,0,5,398.6162814999989,398.6162814999989,398.6162814999989,[0.12685185185185185],[-0.4148148148148148],[1],[0],[0],[1.0098333999922033],['target'],4b,001,2023-09-28_18h29.18.466,visualsearch,2023.1.3,59.87704847000457,
196,0,196,0,5,399.6593672000017,399.6593672000017,399.6593672000017,[-0.2037037037037037],[-0.325],[1],[0],[0],[1.2042884000111371],['target'],4b,001,2023-09-28_18h29.18.466,visualsearch,2023.1.3,59.87704847000457,
197,0,197,0,5,400.9179751000047,400.9179751000047,400.9179751000047,[-0.2111111111111111],[-0.3101851851851852],[1],[0],[0],[0.8972600999986753],['target'],4b,001,2023-09-28_18h29.18.466,visualsearch,2023.1.3,59.87704847000457,
198,0,198,0,10,401.9757413000043,401.9757413000043,401.9757413000043,[-0.29259259259259257],[0.25462962962962965],[1],[0],[0],[1.6365081000112696],['target'],4b,001,2023-09-28_18h29.18.466,visualsearch,2023.1.3,59.87704847000457,
199,0,199,0,5,403.65354189999925,403.65354189999925,403.65354189999925,[-0.23425925925925925],[-0.11018518518518519],[1],[0],[0],[1.2859063000069],[],4b,001,2023-09-28_18h29.18.466,visualsearch,2023.1.3,59.87704847000457,
